timestamp,FR_hip_q,FR_hip_dq,FR_hip_tau,FR_thigh_q,FR_thigh_dq,FR_thigh_tau,FR_calf_q,FR_calf_dq,FR_calf_tau,FL_hip_q,FL_hip_dq,FL_hip_tau,FL_thigh_q,FL_thigh_dq,FL_thigh_tau,FL_calf_q,FL_calf_dq,FL_calf_tau,RR_hip_q,RR_hip_dq,RR_hip_tau,RR_thigh_q,RR_thigh_dq,RR_thigh_tau,RR_calf_q,RR_calf_dq,RR_calf_tau,RL_hip_q,RL_hip_dq,RL_hip_tau,RL_thigh_q,RL_thigh_dq,RL_thigh_tau,RL_calf_q,RL_calf_dq,RL_calf_tau,foot_FL,foot_FR,foot_RL,foot_RR,roll,pitch,yaw,gyro_x,gyro_y,gyro_z,acc_x,acc_y,acc_z
1782388559.0565777,-0.035068780183792114,0.10463915020227432,-0.6679335832595825,0.49841272830963135,-2.8911406993865967,0.049476563930511475,-1.758385419845581,1.9997704029083252,0.9008857607841492,-0.07426339387893677,-0.09301257133483887,-3.78495717048645,0.9112468957901001,1.174283742904663,0.024738281965255737,-1.4533458948135376,0.008088049478828907,15.03056812286377,0.03859126567840576,0.003875523805618286,4.675535202026367,1.105865240097046,1.3448067903518677,0.7668867111206055,-1.5089037418365479,0.0626823902130127,15.362473487854004,-0.09275782108306885,0.04263076186180115,0.940054714679718,0.602864682674408,-2.6857380867004395,0.3463359475135803,-1.7423512935638428,2.003814220428467,1.4698662757873535,0,60,43,10,0.014414709,-0.03264908,2.9903283,0.10013484,-0.11717907,-0.01704423,2.0530279,0.10295067,9.064447
1782388559.061499,-0.034402668476104736,0.12789228558540344,-0.7421484589576721,0.487119197845459,-2.406700372695923,0.024738281965255737,-1.7440259456634521,2.173663377761841,0.4741504192352295,-0.07465702295303345,-0.034879714250564575,-3.78495717048645,0.9161821007728577,1.089022159576416,-0.049476563930511475,-1.4533458948135376,0.006066037341952324,15.03056812286377,0.03853076696395874,-0.034879714250564575,4.749750137329102,1.1138283014297485,1.108399748802185,0.6431953310966492,-1.508714199066162,-0.016176098957657814,15.22022819519043,-0.09269726276397705,0.01937761902809143,0.8658398389816284,0.5872112512588501,-2.398949146270752,0.44528907537460327,-1.7333943843841553,2.1231131553649902,1.090545892715454,0,59,42,10,0.014972153,-0.03358992,2.9902828,0.08735167,-0.12889698,-0.015978964,2.3942018,-0.12210429,8.853758
1782388559.0626726,-0.03343379497528076,0.2829132378101349,-0.8411015868186951,0.48145735263824463,-2.1625423431396484,0.049476563930511475,-1.7393500804901123,2.3819305896759033,0.5215654373168945,-0.07477813959121704,-0.13564333319664001,-3.78495717048645,0.9189978837966919,1.1626571416854858,-0.049476563930511475,-1.453298568725586,0.056616347283124924,15.077982902526855,0.038439929485321045,0.01937761902809143,4.700273513793945,1.1163716316223145,1.174283742904663,0.5442422032356262,-1.508666753768921,0.0384182371199131,15.22022819519043,-0.09263670444488525,0.01937761902809143,0.8905781507492065,0.5825787782669067,-2.2400527000427246,0.5442422032356262,-1.723252773284912,2.561889886856079,0.6638105511665344,0,59,42,10,0.015162953,-0.033893522,2.9902892,0.09480853,-0.11611381,-0.0042610574,2.3942018,-0.12210429,8.853758
1782388559.063782,-0.032919079065322876,0.3139174282550812,-0.8658398389816284,0.47812676429748535,-2.011396884918213,0.049476563930511475,-1.7354955673217773,2.3819305896759033,0.3319052755832672,-0.07480841875076294,-0.046506285667419434,-3.760218858718872,0.9229037165641785,1.3486822843551636,0.024738281965255737,-1.453298568725586,0.026286162436008453,14.983152389526367,0.038258254528045654,0.0,4.675535202026367,1.1183093786239624,1.1432795524597168,0.5195039510726929,-1.5086510181427002,0.014154086820781231,15.267642974853516,-0.09260642528533936,-0.05038180947303772,0.8905781507492065,0.578733503818512,-2.4144513607025146,0.8411015868186951,-1.7190666198730469,2.5578458309173584,0.3319052755832672,0,58,42,10,0.015343948,-0.034218837,2.9903073,0.09800432,-0.1225054,0.008522115,2.3942018,-0.12210429,8.853758
1782388559.0649025,-0.03249518573284149,0.2790377140045166,-0.7668867111206055,0.4712235927581787,-1.9842681884765625,-0.024738281965255737,-1.7318464517593384,2.2181477546691895,1.7069414854049683,-0.07489925622940063,-0.046506285667419434,-3.3644063472747803,0.9251139760017395,1.395188570022583,-0.024738281965255737,-1.4531720876693726,0.07077043503522873,15.457303047180176,0.038258254528045654,0.007751047611236572,4.700273513793945,1.1222455501556396,1.2440431118011475,0.5937187671661377,-1.5085878372192383,0.018198112025856972,15.931453704833984,-0.09260642528533936,0.015502095222473145,0.940054714679718,0.5754332542419434,-2.302061080932617,0.7668867111206055,-1.7155438661575317,2.3940627574920654,2.4655821323394775,0,58,42,10,0.015527326,-0.034531508,2.9902954,0.09480853,-0.12676646,-0.011717907,2.529474,-0.093373865,8.414422
1782388559.0659866,-0.032010748982429504,0.2519090473651886,-0.7916250228881836,0.46780216693878174,-1.9145088195800781,-0.024738281965255737,-1.7281816005706787,2.5457136631011963,1.6121113300323486,-0.07483869791030884,0.011626571416854858,-3.3891446590423584,0.9276269674301147,1.5579605102539062,-0.024738281965255737,-1.4530457258224487,0.07481446117162704,15.59954833984375,0.03831881284713745,0.034879714250564575,4.700273513793945,1.124516248703003,1.4455703496932983,0.470027357339859,-1.5084140300750732,0.1294087916612625,16.026283264160156,-0.09260642528533936,0.05038180947303772,0.9647929668426514,0.5687419176101685,-2.0811562538146973,0.7668867111206055,-1.7109943628311157,2.895521879196167,2.133676767349243,0,58,41,10,0.015607865,-0.03470844,2.9902964,0.08522114,-0.13315804,-0.0053263213,2.529474,-0.093373865,8.414422
1782388559.0670536,-0.03140519559383392,0.3061663806438446,-0.7916250228881836,0.4642294645309448,-2.212924003601074,0.12369140982627869,-1.7238848209381104,2.707474708557129,1.2327910661697388,-0.07480841875076294,-0.015502095222473145,-3.339668035507202,0.9305639266967773,1.5153297185897827,-0.14842969179153442,-1.4528720378875732,0.09301257133483887,15.552133560180664,0.038439929485321045,0.06975942850112915,4.700273513793945,1.127301812171936,1.4455703496932983,0.37107422947883606,-1.5082086324691772,0.14356288313865662,15.931453704833984,-0.09269726276397705,-0.007751047611236572,0.940054714679718,0.565048098564148,-1.9455128908157349,0.6926718950271606,-1.7066028118133545,2.978424549102783,1.896601676940918,0,57,41,10,0.015803091,-0.035249263,2.9902985,0.053263217,-0.10972223,-0.011717907,2.4887726,0.24061728,8.614338
1782388559.0681176,-0.03070881962776184,0.3061663806438446,-0.8411015868186951,0.4583858251571655,-2.584974527359009,0.42055079340934753,-1.7185770273208618,2.7681350708007812,1.4224512577056885,-0.07474786043167114,0.01937761902809143,-3.3644063472747803,0.9339550137519836,1.52695631980896,-0.07421484589576721,-1.4527140855789185,0.0768364742398262,15.646963119506836,0.03853076696395874,0.06975942850112915,4.799226760864258,1.1302387714385986,1.4416948556900024,0.3215976655483246,-1.5078927278518677,0.17187106609344482,15.836623191833496,-0.09269726276397705,-0.011626571416854858,0.8658398389816284,0.5611422657966614,-1.8253717422485352,0.6926718950271606,-1.7006473541259766,2.925852060317993,1.8491865396499634,0,57,41,10,0.015953671,-0.035561405,2.9902942,0.08202535,-0.11291802,-0.011717907,2.4887726,0.24061728,8.614338
1782388559.0775573,-0.029921606183052063,0.32554399967193604,-0.7916250228881836,0.45302677154541016,-2.488086223602295,0.7421484589576721,-1.7067608833312988,2.743870973587036,1.2327910661697388,-0.07483869791030884,-0.06200838088989258,-3.339668035507202,0.9370130300521851,1.371935486793518,-0.12369140982627869,-1.4526034593582153,0.05863836035132408,15.646963119506836,0.03853076696395874,0.034879714250564575,4.848703384399414,1.133084774017334,1.3293046951293945,0.2721211016178131,-1.507466197013855,0.24264149367809296,16.026283264160156,-0.09251558780670166,0.13176780939102173,0.8411015868186951,0.5570850968360901,-2.003645658493042,0.8905781507492065,-1.6941863298416138,3.247351884841919,1.6595264673233032,0,57,41,10,0.016144877,-0.03605182,2.990275,0.05432848,-0.11504854,-0.01704423,2.4983494,0.18195933,8.814254
1782388559.0786488,-0.029255494475364685,0.29841533303260803,-0.7916250228881836,0.44757676124572754,-2.321438789367676,0.6431953310966492,-1.6975512504577637,2.7701570987701416,0.9008857607841492,-0.07489925622940063,-0.07363495230674744,-3.290191411972046,0.9399802684783936,1.267296314239502,-0.12369140982627869,-1.4525560140609741,0.03235219791531563,15.646963119506836,0.038439929485321045,-0.034879714250564575,4.725011825561523,1.1357492208480835,1.3215537071228027,0.24738281965255737,-1.5069290399551392,0.2406194806098938,15.836623191833496,-0.09239453077316284,0.12401676177978516,0.7668867111206055,0.5531792640686035,-1.980392575263977,1.0390079021453857,-1.6865406036376953,3.2513959407806396,1.7069414854049683,0,56,41,10,0.016284537,-0.036577698,2.9902673,0.043675836,-0.13741909,-0.012783172,2.4983494,0.18195933,8.814254
1782388559.0822906,-0.028347164392471313,0.26353561878204346,-0.8905781507492065,0.44070374965667725,-2.139289140701294,0.6679335832595825,-1.6975512504577637,2.7701570987701416,0.9008857607841492,-0.07489925622940063,-0.07363495230674744,-3.290191411972046,0.9444007873535156,1.1820347309112549,-0.12369140982627869,-1.4525560140609741,0.034374210983514786,15.59954833984375,0.038409650325775146,-0.034879714250564575,4.799226760864258,1.1400789022445679,1.112275242805481,0.17316797375679016,-1.5062181949615479,0.20826728641986847,15.78920841217041,-0.09215229749679565,0.11626572161912918,0.7668867111206055,0.5531792640686035,-1.980392575263977,1.0390079021453857,-1.6767464876174927,3.30599045753479,1.1379609107971191,0,56,41,10,0.01634491,-0.036972243,2.990269,0.028762136,-0.14168015,0.003195793,2.5809495,0.23822308,8.950723
1782388559.0833852,-0.027257174253463745,0.41080552339553833,-0.9647929668426514,0.4347693920135498,-2.185795545578003,0.8905781507492065,-1.6904268264770508,2.865191698074341,0.8060556650161743,-0.07486897706985474,0.0,-3.3644063472747803,0.9471560120582581,1.2130389213562012,-0.17316797375679016,-1.4525560140609741,0.034374210983514786,15.59954833984375,0.03847020864486694,0.015502095222473145,4.799226760864258,1.1400789022445679,1.112275242805481,0.17316797375679016,-1.5055705308914185,0.2689276337623596,15.78920841217041,-0.09200090169906616,0.11626572161912918,0.8658398389816284,0.5468815565109253,-1.6703507900238037,0.9647929668426514,-1.6676158905029297,3.3727166652679443,0.6638105511665344,0,56,41,10,0.01640262,-0.037327025,2.9902794,0.030892665,-0.14061488,0.0,2.5809495,0.23822308,8.950723
1782388559.08446,-0.026348859071731567,0.32554399967193604,-0.9647929668426514,0.4347693920135498,-2.185795545578003,0.8905781507492065,-1.6842186450958252,3.124009132385254,0.3319052755832672,-0.07480841875076294,0.003875523805618286,-3.3644063472747803,0.9496992826461792,1.263420820236206,-0.24738281965255737,-1.4525560140609741,0.008088049478828907,15.59954833984375,0.03853076696395874,0.10851466655731201,4.799226760864258,1.142591953277588,1.216914415359497,0.17316797375679016,-1.504891276359558,0.25275155901908875,15.741793632507324,-0.09203118085861206,0.07363495230674744,0.8658398389816284,0.5435207486152649,-1.52695631980896,0.8411015868186951,-1.660017490386963,3.465729236602783,0.4741504192352295,0,56,41,10,0.016458899,-0.037604466,2.990292,0.028762136,-0.09374326,0.0010652643,2.5809495,0.23822308,8.950723
1782388559.0855808,-0.025622189044952393,0.34879714250564575,-0.7668867111206055,0.426715612411499,-1.9145088195800781,0.5689804553985596,-1.6773942708969116,2.954160213470459,-0.04741504043340683,-0.07468730211257935,0.08913704752922058,-2.9438555240631104,0.9520306587219238,1.2517942190170288,0.5195039510726929,-1.4524770975112915,0.05055030807852745,16.026283264160156,0.03850048780441284,0.0,4.576581954956055,1.144802212715149,1.1549060344696045,0.17316797375679016,-1.5042752027511597,0.3214999735355377,16.64267921447754,-0.09203118085861206,-0.027128666639328003,0.8411015868186951,0.540614128112793,-1.3641843795776367,0.7916250228881836,-1.653098464012146,3.7730751037597656,2.987147569656372,0,56,41,10,0.016509827,-0.03793106,2.990316,0.02450108,-0.11824434,0.012783172,3.0969,0.061052144,8.542512
1782388559.0866416,-0.024865254759788513,0.4689383804798126,-0.8658398389816284,0.4226886034011841,-2.1160359382629395,0.5195039510726929,-1.672592043876648,2.9743802547454834,1.6121113300323486,-0.07444506883621216,0.11626572161912918,-2.9685938358306885,0.9552098512649536,1.6781017780303955,0.470027357339859,-1.4523823261260986,0.06066037341952324,16.026283264160156,0.03859126567840576,0.07363495230674744,4.5023674964904785,1.1468610763549805,1.216914415359497,0.7668867111206055,-1.50361168384552,0.3801383376121521,16.73750877380371,-0.09206146001815796,-0.011626571416854858,0.8411015868186951,0.5382221937179565,-1.2362921237945557,0.6926718950271606,-1.6461635828018188,4.2462263107299805,2.6552422046661377,0,56,41,10,0.01651409,-0.03827972,2.9903245,-0.0042610574,-0.105461165,-0.003195793,3.0969,0.061052144,8.542512
1782388559.0877066,-0.02398720383644104,0.4728139042854309,-0.8411015868186951,0.4190250635147095,-1.8680025339126587,0.5195039510726929,-1.666494369506836,3.3727166652679443,1.8017715215682983,-0.07426339387893677,0.07751047611236572,-2.869640827178955,0.9588128328323364,1.988143801689148,0.24738281965255737,-1.4521294832229614,0.0384182371199131,16.215944290161133,0.03868210315704346,0.054257333278656006,4.4776291847229,1.1493438482284546,1.4571969509124756,0.5442422032356262,-1.5027744770050049,0.41046854853630066,16.595264434814453,-0.09212201833724976,-0.05038180947303772,0.7916250228881836,0.535860538482666,-1.1704081296920776,0.6431953310966492,-1.6376174688339233,4.005606651306152,2.6078271865844727,0,55,41,10,0.016454453,-0.038599573,2.990336,-0.023435814,-0.11398328,0.0053263213,2.9496565,0.3854665,8.842984
1782388559.096473,-0.023199990391731262,0.40305447578430176,-0.8411015868186951,0.41581571102142334,-1.852500319480896,0.5195039510726929,-1.6601439714431763,3.3545186519622803,1.4224512577056885,-0.07417261600494385,0.027128666639328003,-2.869640827178955,0.9621434211730957,1.8796290159225464,0.12369140982627869,-1.4520189762115479,0.0384182371199131,16.215944290161133,0.03880321979522705,0.09688809514045715,4.527105808258057,1.1548845767974854,1.6277201175689697,0.2721211016178131,-1.5019688606262207,0.42057859897613525,16.64267921447754,-0.09209173917770386,0.09301257133483887,0.7916250228881836,0.5318941473960876,-1.1665326356887817,0.6679335832595825,-1.6301612854003906,4.519197463989258,2.2285068035125732,0,55,41,10,0.016376184,-0.038957477,2.9903374,-0.030892665,-0.1225054,-0.0021305287,2.9496565,0.3854665,8.842984
1782388559.097738,-0.021474167704582214,0.4456852376461029,-0.940054714679718,0.41012346744537354,-1.6005913019180298,0.470027357339859,-1.6408401727676392,3.5890719890594482,1.2327910661697388,-0.07383954524993896,0.08913704752922058,-2.869640827178955,0.9691677689552307,1.8641269207000732,0.049476563930511475,-1.4519083499908447,-0.0040440247394144535,16.26335906982422,0.039106011390686035,0.1666475236415863,4.5023674964904785,1.16090989112854,1.7207326889038086,0.14842969179153442,-1.5004839897155762,0.3902483880519867,16.64267921447754,-0.09191006422042847,0.09301257133483887,0.6926718950271606,0.527655303478241,-1.2401676177978516,1.0390079021453857,-1.615169882774353,4.505043983459473,2.038846731185913,0,55,42,10,0.016239647,-0.039458442,2.990379,-0.028762136,-0.07350324,-0.0053263213,3.205836,0.29927522,9.588778
1782388559.0988069,-0.021474167704582214,0.4456852376461029,-0.940054714679718,0.41012346744537354,-1.6005913019180298,0.470027357339859,-1.6408401727676392,3.5890719890594482,1.2327910661697388,-0.07368814945220947,0.08138599991798401,-2.869640827178955,0.9691677689552307,1.8641269207000732,0.049476563930511475,-1.4519083499908447,-0.0040440247394144535,16.26335906982422,0.039106011390686035,0.1666475236415863,4.5023674964904785,1.16090989112854,1.7207326889038086,0.14842969179153442,-1.4997098445892334,0.3619402348995209,16.927169799804688,-0.09191006422042847,0.09301257133483887,0.6926718950271606,0.527655303478241,-1.2401676177978516,1.0390079021453857,-1.6066712141036987,4.824521541595459,1.2327910661697388,0,55,42,10,0.016239647,-0.039458442,2.990379,-0.028762136,-0.07350324,-0.0053263213,3.205836,0.29927522,9.588778
1782388559.103242,-0.019808903336524963,0.48831602931022644,-0.9895312786102295,0.4039468765258789,-1.852500319480896,0.8658398389816284,-1.6340316534042358,3.574917793273926,0.9008857607841492,-0.07359731197357178,0.054257333278656006,-2.9191172122955322,0.9752233028411865,1.918384313583374,-0.12369140982627869,-1.451892614364624,0.014154086820781231,16.168529510498047,0.03943908214569092,0.15114542841911316,4.4776291847229,1.165966272354126,1.5657116174697876,0.14842969179153442,-1.4984776973724365,0.32352200150489807,16.832340240478516,-0.09178894758224487,0.07363495230674744,0.7916250228881836,0.523810088634491,-1.0773955583572388,0.940054714679718,-1.5895788669586182,4.575814247131348,0.9008857607841492,0,54,42,10,0.016030628,-0.039972268,2.9903784,-0.0894822,-0.08628641,-0.0149137005,3.205836,0.29927522,9.588778
1782388559.1057293,-0.01723530888557434,0.4805649518966675,-1.0390079021453857,0.3973160982131958,-1.592840313911438,0.8658398389816284,-1.61509108543396,3.8721539974212646,0.3319052755832672,-0.0732036828994751,0.12789228558540344,-2.869640827178955,0.9840946197509766,1.4571969509124756,-0.07421484589576721,-1.451892614364624,0.07279244810342789,16.26335906982422,0.039984047412872314,0.23640695214271545,4.329199314117432,1.1708711385726929,1.1355284452438354,0.24738281965255737,-1.4975773096084595,0.19411319494247437,16.784923553466797,-0.09181922674179077,-0.034879714250564575,0.7916250228881836,0.520025372505188,-0.926250159740448,0.7916250228881836,-1.5724233388900757,4.812389373779297,0.3319052755832672,0,54,42,10,0.015748184,-0.0404247,2.9903488,-0.062850595,-0.0447411,-0.009587379,3.1124623,0.6596026,9.31105
1782388559.1067917,-0.016629770398139954,0.3410460948944092,-1.0390079021453857,0.39247167110443115,-1.30605149269104,0.6926718950271606,-1.6092461347579956,3.8761978149414062,0.04741504043340683,-0.0731128454208374,0.05813286080956459,-2.9191172122955322,0.986486554145813,1.4378193616867065,-0.049476563930511475,-1.451829433441162,0.07279244810342789,16.26335906982422,0.0408015251159668,0.2480335235595703,4.3044610023498535,1.1729602813720703,1.2479186058044434,0.2721211016178131,-1.4972771406173706,0.21028929948806763,16.784923553466797,-0.09203118085861206,-0.10851466655731201,0.8658398389816284,0.5189051032066345,-0.6743411421775818,0.6679335832595825,-1.5654252767562866,4.982238292694092,0.0,0,53,42,10,0.015654469,-0.04065482,2.9903226,-0.053263217,-0.05432848,-0.015978964,3.335123,0.19153613,8.752005
1782388559.1078408,-0.015993937849998474,0.4185566008090973,-0.5937187671661377,0.3902311325073242,-1.1510305404663086,0.7668867111206055,-1.6037803888320923,4.104685306549072,2.133676767349243,-0.07287067174911499,0.20540276169776917,-2.1522305011749268,0.9890298247337341,1.371935486793518,-0.024738281965255737,-1.4518135786056519,0.036396224051713943,17.02199935913086,0.041225433349609375,0.2480335235595703,3.982863426208496,1.1747164726257324,1.174283742904663,0.42055079340934753,-1.496850609779358,0.24668550491333008,16.595264434814453,-0.09224313497543335,-0.09688809514045715,0.9895312786102295,0.5180573463439941,-0.4456852376461029,0.37107422947883606,-1.5575900077819824,4.775993347167969,3.081977605819702,0,53,42,10,0.015511572,-0.040892027,2.9902909,-0.08522114,-0.07137271,-0.020240022,3.335123,0.19153613,8.752005
1782388559.1089242,-0.014994785189628601,0.4689383804798126,-0.5937187671661377,0.38835394382476807,-0.9998852014541626,0.6679335832595825,-1.5965454578399658,4.2239837646484375,2.4655821323394775,-0.07220453023910522,0.40693002939224243,-2.226445436477661,0.991300642490387,1.3293046951293945,-0.049476563930511475,-1.4514976739883423,0.12738679349422455,17.164243698120117,0.04146766662597656,0.16277199983596802,4.0570783615112305,1.1788947582244873,1.2362921237945557,0.22264453768730164,-1.4964083433151245,0.2406194806098938,16.405603408813477,-0.09230369329452515,0.027128666639328003,0.8411015868186951,0.5168159604072571,-0.22865590453147888,0.14842969179153442,-1.5495177507400513,4.393833160400391,5.025994300842285,0,53,40,10,0.015433396,-0.041004844,2.990264,-0.08415588,-0.055393744,-0.031957928,3.335123,0.19153613,8.752005
1782388559.1149418,-0.014025896787643433,0.5425733327865601,-0.6431953310966492,0.3868703842163086,-0.9921340942382812,0.6679335832595825,-1.5824861526489258,4.268468379974365,1.8017715215682983,-0.07159900665283203,0.32166847586631775,-2.226445436477661,0.9929356575012207,1.1471550464630127,0.0,-1.4512765407562256,0.16984905302524567,17.164243698120117,0.04167962074279785,0.1433943808078766,4.0570783615112305,1.1808627843856812,1.3021759986877441,0.22264453768730164,-1.4960449934005737,0.24870754778385162,16.35818862915039,-0.09203118085861206,0.27128666639328003,0.6431953310966492,0.5164223313331604,-0.27128666639328003,0.07421484589576721,-1.5441467761993408,3.7366790771484375,6.258785247802734,0,53,40,10,0.01537469,-0.041063793,2.9902425,0.0021305287,0.11611381,-0.01704423,3.4404678,-0.18435353,8.892065
1782388559.1160328,-0.01314784586429596,0.45731180906295776,-0.5937187671661377,0.38453900814056396,-0.8874949812889099,0.6926718950271606,-1.5824861526489258,4.268468379974365,1.8017715215682983,-0.07087236642837524,0.3022908568382263,-2.1522305011749268,0.9957514405250549,1.019262671470642,0.0,-1.4509289264678955,0.2022012323141098,17.164243698120117,0.04201263189315796,0.1666475236415863,4.007601737976074,1.1835575103759766,1.1626571416854858,0.17316797375679016,-1.4955710172653198,0.3033018708229065,16.168529510498047,-0.09112286567687988,0.5038180947303772,0.37107422947883606,0.5159682035446167,-0.21702933311462402,0.024738281965255737,-1.5394392013549805,2.8813676834106445,7.207086086273193,0,53,40,13,0.0154342055,-0.041063856,2.9902902,0.051132686,-0.003195793,0.028762136,3.4404678,-0.18435353,8.892065
1782388559.1171145,-0.01208813488483429,0.2790377140045166,-0.44528907537460327,0.382601261138916,-0.9068726301193237,0.8411015868186951,-1.5721391439437866,4.234094142913818,1.991431713104248,-0.07041817903518677,0.13564333319664001,-2.003800868988037,0.9978406429290771,0.883619487285614,0.049476563930511475,-1.4505339860916138,0.23657545447349548,17.069414138793945,0.04222458600997925,0.12014123797416687,4.007601737976074,1.1858887672424316,1.1432795524597168,0.12369140982627869,-1.494781255722046,0.34374213218688965,16.073698043823242,-0.08979064226150513,0.6278348565101624,0.3215976655483246,0.5159682035446167,-0.21702933311462402,0.024738281965255737,-1.5350635051727295,1.6297420263290405,8.392461776733398,0,53,40,13,0.015711999,-0.040832628,2.9904616,0.23222762,0.1789644,0.07243797,2.3403323,-1.4221559,12.204443
1782388559.1181598,-0.011664256453514099,0.12401676177978516,-0.3215976655483246,0.3804818391799927,-1.0851466655731201,0.9895312786102295,-1.563277006149292,4.476735591888428,1.7069414854049683,-0.07035762071609497,-0.03875523805618286,-1.8058946132659912,0.999808669090271,0.9340012669563293,0.049476563930511475,-1.4500128030776978,0.23657545447349548,16.974584579467773,0.04234570264816284,0.07751047611236572,4.081816673278809,1.1858887672424316,1.1432795524597168,0.12369140982627869,-1.4937543869018555,0.4124905467033386,15.741793632507324,-0.08842813968658447,0.6782166957855225,0.24738281965255737,0.5157562494277954,-0.10851466655731201,-0.024738281965255737,-1.53340482711792,0.4569748342037201,9.435592651367188,0,52,38,13,0.01631584,-0.04026863,2.9907484,0.3494067,0.40053937,0.14700648,2.3403323,-1.4221559,12.204443
1782388559.125825,-0.012542292475700378,-0.23640695214271545,-0.024738281965255737,0.37273073196411133,-1.3525577783584595,1.5832500457763672,-1.5355058908462524,4.7092671394348145,0.6163955330848694,-0.07241648435592651,-0.4650628864765167,-1.4100821018218994,1.0051374435424805,0.8022334575653076,0.0,-1.4489227533340454,0.2729716897010803,17.02199935913086,0.04319345951080322,0.03100419044494629,4.0570783615112305,1.1921865940093994,0.9456278085708618,0.12369140982627869,-1.4884624481201172,1.148503065109253,14.84090805053711,-0.08437097072601318,0.5619509220123291,0.22264453768730164,0.5169673562049866,0.6162083148956299,-0.6926718950271606,-1.5383492708206177,-1.2981319427490234,10.004573822021484,0,52,34,34,0.020171236,-0.03742806,2.992315,0.6412891,0.53582793,0.1906823,2.1894975,-9.307459,22.281637
1782388559.1269393,-0.012845069169998169,-0.18990066647529602,-0.024738281965255737,0.3703387975692749,-1.1432795524597168,1.4595586061477661,-1.5263752937316895,5.042899131774902,0.09483008086681366,-0.07341563701629639,-0.5348222851753235,-1.3606054782867432,1.0066816806793213,0.7596026659011841,0.0,-1.44841730594635,0.3033018708229065,17.069414138793945,0.042860448360443115,-0.20540276169776917,4.378675937652588,1.1938518285751343,0.8293620944023132,0.22264453768730164,-1.4861245155334473,1.4073206186294556,14.3667573928833,-0.0840076208114624,0.01937761902809143,0.6926718950271606,0.5188445448875427,1.0115118026733398,-1.2863906621932983,-1.5409241914749146,-1.38103449344635,9.577837944030762,0,52,34,34,0.02166044,-0.03603591,2.9927754,0.874582,0.73609763,0.1789644,2.4648306,-1.6603789,17.688362
1782388559.1279905,-0.013390064239501953,-0.2247803807258606,-0.42055079340934753,0.3703387975692749,-1.1432795524597168,1.4595586061477661,-1.5174341201782227,4.771949291229248,0.42673537135124207,-0.07411205768585205,-0.1433943808078766,0.6431953310966492,1.0086194276809692,1.2207900285720825,1.7316796779632568,-1.4478801488876343,0.23657545447349548,16.927169799804688,0.04186129570007324,-0.5658264756202698,3.339668035507202,1.1947903633117676,0.4805649518966675,0.5195039510726929,-1.4822384119033813,1.785436987876892,15.646963119506836,-0.0840076208114624,0.01937761902809143,0.6926718950271606,0.5206915140151978,0.8409886956214905,-1.2616523504257202,-1.5443047285079956,-1.3183521032333374,8.25021743774414,0,52,34,60,0.023288455,-0.03455804,2.9932494,0.92997575,0.7755124,0.16831176,2.4648306,-1.6603789,17.688362
1782388559.1290548,-0.013965338468551636,-0.3139174282550812,-0.42055079340934753,0.36855244636535645,-0.6820921897888184,2.9685938358306885,-1.5063605308532715,4.970106601715088,5.4053144454956055,-0.07347619533538818,0.3836768567562103,0.6431953310966492,1.0117379426956177,1.6703507900238037,1.4100821018218994,-1.4475483894348145,0.19006916880607605,17.02199935913086,0.04040795564651489,-0.7751047611236572,3.3644063472747803,1.1950023174285889,0.027128666639328003,0.24738281965255737,-1.4785103797912598,2.2201695442199707,15.267642974853516,-0.08879148960113525,-1.6393465995788574,0.7421484589576721,0.5245972871780396,2.3330652713775635,2.844902515411377,-1.5461845397949219,-1.1848993301391602,7.870896816253662,0,52,29,60,0.025096994,-0.032973222,2.9937248,0.951281,0.88949573,0.18748651,2.4648306,-1.6603789,17.688362
1782388559.130095,-0.014782831072807312,-0.4224320948123932,-0.3463359475135803,0.36806797981262207,-0.18990066647529602,2.869640827178955,-1.496171474456787,5.665678977966309,4.694088935852051,-0.07226508855819702,0.5929551720619202,0.6926718950271606,1.0156135559082031,1.9842681884765625,1.2863906621932983,-1.4473588466644287,0.11121068149805069,17.164243698120117,0.038742661476135254,-0.8371132016181946,3.4633593559265137,1.1945481300354004,-0.29453980922698975,0.3215976655483246,-1.4740082025527954,2.432481050491333,15.172813415527344,-0.09233397245407104,-1.7943674325942993,0.7916250228881836,0.5299866795539856,3.6856231689453125,1.9048477411270142,-1.5481433868408203,-0.883619487285614,7.444161415100098,0,52,29,60,0.027051877,-0.03112774,2.9943156,1.0663296,0.9821737,0.23222762,3.7732618,-0.997185,14.1629
1782388559.1375506,-0.016993090510368347,-0.5968306660652161,-0.3215976655483246,0.3673110008239746,-0.17439857125282288,2.9438555240631104,-1.4733763933181763,6.043795108795166,3.982863426208496,-0.06975209712982178,0.3914279043674469,1.0637460947036743,1.0215176343917847,1.0347648859024048,2.2511837482452393,-1.4472640752792358,-0.034374210983514786,17.02199935913086,0.03529101610183716,-0.8409886956214905,3.488097667694092,1.1923985481262207,-0.7208474278450012,0.7916250228881836,-1.462650179862976,3.158383369445801,14.603832244873047,-0.09557366371154785,-1.6742264032363892,0.7916250228881836,0.546003520488739,4.077050685882568,1.8058946132659912,-1.5502443313598633,-0.35789620876312256,7.064840793609619,0,53,29,52,0.03064466,-0.027760789,2.9955878,0.8628641,0.9811084,0.27909926,3.7253778,-2.6599581,8.000225
1782388559.1386585,-0.016993090510368347,-0.5968306660652161,-0.3215976655483246,0.3668872117996216,-0.22865590453147888,3.0180704593658447,-1.4598699808120728,6.241952419281006,3.2716376781463623,-0.06947958469390869,0.015502095222473145,1.4842969179153442,1.0215176343917847,1.0347648859024048,2.2511837482452393,-1.4472798109054565,0.0020220123697072268,17.02199935913086,0.03529101610183716,-0.8409886956214905,3.488097667694092,1.1906120777130127,-0.9029970169067383,1.0637460947036743,-1.4562366008758545,3.1462514400482178,14.3667573928833,-0.09875279664993286,-1.4765745401382446,0.6926718950271606,0.5520287156105042,2.3369410037994385,3.488097667694092,-1.5508919954299927,-0.24466349184513092,7.491576194763184,0,53,29,52,0.03224983,-0.025899017,2.9962912,0.8436893,0.92784524,0.27270767,3.7253778,-2.6599581,8.000225
1782388559.1397123,-0.01817391812801361,-0.5425733327865601,-0.2721211016178131,0.3666449785232544,-0.08913704752922058,2.9191172122955322,-1.4428409337997437,6.583672523498535,2.797487497329712,-0.07002454996109009,-0.26741114258766174,1.6327266693115234,1.0235159397125244,0.6704655885696411,2.5480430126190186,-1.4472640752792358,0.03033018670976162,16.927169799804688,0.033837735652923584,-0.5541998744010925,3.265453338623047,1.1879174709320068,-1.0425158739089966,1.4100821018218994,-1.4562366008758545,3.1462514400482178,14.3667573928833,-0.10153830051422119,-1.069644570350647,0.470027357339859,0.5572969913482666,2.484210729598999,2.7706875801086426,-1.5508919954299927,-0.24466349184513092,7.491576194763184,0,53,29,52,0.0334827,-0.024262814,2.996941,0.5986785,0.84262407,0.2631203,3.7253778,-2.6599581,8.000225
1782388559.1448622,-0.018718913197517395,-0.12789228558540344,-0.5937187671661377,0.3666449785232544,0.12401676177978516,2.67173433303833,-1.4428409337997437,6.583672523498535,2.797487497329712,-0.07002454996109009,-0.26741114258766174,1.6327266693115234,1.0247573852539062,0.5580754280090332,2.5480430126190186,-1.4471850395202637,0.056616347283124924,16.927169799804688,0.032929420471191406,-0.20540276169776917,3.042808771133423,1.1851319074630737,-1.3641843795776367,1.6327266693115234,-1.4486383199691772,2.8854117393493652,14.746077537536621,-0.10371828079223633,-0.7247229814529419,0.22264453768730164,0.5627772808074951,1.7633633613586426,3.710742235183716,-1.5514607429504395,-0.2305094301700592,7.444161415100098,0,53,29,38,0.03469685,-0.023034276,2.9975817,0.5528722,0.7350324,0.27483818,4.593276,-0.044292733,11.560403
1782388559.1477048,-0.0184766948223114,0.13176780939102173,-0.8411015868186951,0.3673412799835205,0.3061663806438446,2.449090003967285,-1.4290027618408203,6.179270267486572,3.6983730792999268,-0.07084208726882935,-0.34492161870002747,1.5832500457763672,1.02687668800354,0.8138600587844849,2.201707124710083,-1.446932315826416,0.14154087007045746,16.784923553466797,0.03223299980163574,-0.27128666639328003,3.117023468017578,1.1851319074630737,-1.3641843795776367,1.6327266693115234,-1.4421299695968628,3.0087544918060303,14.461586952209473,-0.10517162084579468,-0.48444047570228577,0.14842969179153442,0.5627772808074951,1.7633633613586426,3.710742235183716,-1.5516818761825562,-0.04852829873561859,7.112256050109863,0,53,29,38,0.03559344,-0.021735948,2.9982533,0.48895633,0.68496495,0.27696872,4.593276,-0.044292733,11.560403
1782388559.150146,-0.018325313925743103,-0.011626571416854858,-0.6431953310966492,0.3677046298980713,0.18990066647529602,2.4985663890838623,-1.417376160621643,4.234094142913818,7.965726852416992,-0.07150816917419434,-0.3022908568382263,1.5832500457763672,1.0285723209381104,0.7324740290641785,2.226445436477661,-1.446932315826416,0.14154087007045746,16.784923553466797,0.031294405460357666,-0.35267266631126404,3.290191411972046,1.1815288066864014,-1.2789229154586792,1.6079883575439453,-1.434499979019165,2.954160213470459,14.271926879882812,-0.10589826107025146,-0.29841533303260803,0.024738281965255737,0.5644727945327759,0.4224320948123932,4.997132778167725,-1.5516661405563354,0.05257232487201691,7.112256050109863,0,53,33,38,0.036315754,-0.020459112,2.9989405,0.4026699,0.7105313,0.30999193,2.3918076,2.9771898,5.553351
1782388559.1512146,-0.01884002983570099,-0.15502095222473145,0.049476563930511475,0.36870384216308594,0.2829132378101349,1.5090352296829224,-1.4085614681243896,1.316330075263977,13.039135932922363,-0.07187151908874512,0.04263076186180115,1.9295859336853027,1.0319633483886719,0.9184991717338562,2.1522305011749268,-1.445589542388916,0.23253144323825836,14.746077537536621,0.030083298683166504,-0.07751047611236572,1.7069414854049683,1.1780469417572021,-0.6627146005630493,0.6431953310966492,-1.4250849485397339,2.216125726699829,11.806344985961914,-0.10677635669708252,-0.18990066647529602,-0.5689804553985596,0.5660775303840637,0.6162083148956299,4.725011825561523,-1.5508919954299927,0.28712576627731323,7.444161415100098,4,48,33,27,0.036212005,-0.018673368,2.999859,-0.34194985,0.34194985,0.0894822,2.3918076,2.9771898,5.553351
1782388559.1522593,-0.019627243280410767,-0.5580754280090332,0.5442422032356262,0.36961209774017334,0.6123327612876892,1.0390079021453857,-1.4079138040542603,0.044484272599220276,14.17709732055664,-0.07138705253601074,0.31779295206069946,1.7316796779632568,1.033840537071228,0.9998852014541626,2.0285391807556152,-1.4453368186950684,0.13143080472946167,14.746077537536621,0.030628323554992676,0.4456852376461029,1.1874375343322754,1.176200032234192,-0.3604237139225006,0.37107422947883606,-1.421372652053833,1.8359873294830322,11.569270133972168,-0.10735160112380981,-0.2751621901988983,-0.5937187671661377,0.5677124857902527,0.7867313027381897,4.4776291847229,-1.5500231981277466,0.4650628864765167,7.444161415100098,4,48,33,27,0.03525926,-0.01827999,3.0001087,-0.56352484,0.26951188,0.12996225,-2.895787,7.917625,16.52478
1782388559.153325,-0.021474167704582214,-1.0231382846832275,1.0637460947036743,0.37145912647247314,1.112275242805481,0.5442422032356262,-1.409035325050354,-0.7865628600120544,14.271926879882812,-0.07035762071609497,0.600706160068512,1.4595586061477661,1.035778284072876,0.9572544097900391,2.0780158042907715,-1.4449577331542969,0.2406194806098938,14.603832244873047,0.031688034534454346,0.7130963802337646,0.940054714679718,1.1755338907241821,-0.29841533303260803,0.37107422947883606,-1.4186081886291504,1.8238551616668701,11.427024841308594,-0.10726076364517212,0.20540276169776917,-1.1626992225646973,0.5694988965988159,1.050266981124878,4.230246067047119,-1.5491385459899902,0.5378552675247192,7.2545013427734375,4,44,33,27,0.033725243,-0.017599905,3.0004368,-0.6988134,0.3824299,0.14168015,-2.895787,7.917625,16.52478
1782388559.1543593,-0.024047762155532837,-1.3525577783584595,1.3853437900543213,0.3737602233886719,1.2479186058044434,0.3215976655483246,-1.411483883857727,-1.4073206186294556,14.461586952209473,-0.06887400150299072,0.7906069159507751,1.3111289739608765,1.0378069877624512,0.9650054574012756,2.0285391807556152,-1.444420576095581,0.3174559473991394,14.224512100219727,0.0335349440574646,0.9843829870223999,0.6431953310966492,1.1749889850616455,-0.20540276169776917,0.24738281965255737,-1.4154014587402344,1.8198113441467285,11.047704696655273,-0.10568636655807495,0.9727564454078674,-1.9048477411270142,0.5747368931770325,1.484325647354126,3.6365275382995605,-1.5480170249938965,0.5985156893730164,7.3967461585998535,4,44,33,22,0.032020755,-0.017043307,3.000669,-0.99069583,0.26951188,0.10865696,-2.2768857,4.000711,15.203181
1782388559.1553888,-0.026076361536979675,-1.0037606954574585,0.9647929668426514,0.37627315521240234,1.4804500341415405,0.049476563930511475,-1.4147855043411255,-1.7308427095413208,14.746077537536621,-0.06711792945861816,0.9223746657371521,1.1874375343322754,1.0396538972854614,0.9998852014541626,1.880109429359436,-1.443551778793335,0.5641414523124695,14.034852027893066,0.03589659929275513,1.30605149269104,0.470027357339859,1.1748073101043701,-0.06588390469551086,0.12369140982627869,-1.4118629693984985,1.7571287155151367,10.668384552001953,-0.10359716415405273,1.3525577783584595,-2.1522305011749268,0.5774921178817749,1.4726990461349487,3.537574291229248,-1.5470376014709473,0.5681855082511902,7.633821487426758,50,44,33,22,0.0300235,-0.01672927,3.0010512,-1.0684601,0.11078749,0.23435815,-2.2768857,4.000711,15.203181
1782388559.1564174,-0.027196615934371948,-0.49219149351119995,0.6431953310966492,0.3796945810317993,1.9842681884765625,-0.3463359475135803,-1.4226680994033813,-2.175685405731201,14.034852027893066,-0.06518018245697021,1.019262671470642,1.0637460947036743,1.041682481765747,1.0231382846832275,1.8058946132659912,-1.4423669576644897,0.7380345463752747,13.608116149902344,0.03856104612350464,1.3874374628067017,0.2721211016178131,1.174867868423462,0.046506285667419434,0.024738281965255737,-1.408387541770935,2.0240345001220703,10.194233894348145,-0.1009933352470398,1.3796864748001099,-2.3253984451293945,0.5803685188293457,1.5075788497924805,3.339668035507202,-1.5461372137069702,0.471128910779953,7.776066780090332,50,44,31,22,0.027597256,-0.016683316,3.001528,-1.3251888,-0.023435814,0.26098976,-2.2768857,4.000711,15.203181
1782388559.1654167,-0.02746911346912384,-0.09301257133483887,0.3215976655483246,0.3826920986175537,2.0772807598114014,-0.6926718950271606,-1.4257643222808838,-2.0846948623657227,13.845191955566406,-0.061789095401763916,1.1161508560180664,0.8411015868186951,1.0431357622146606,0.9843829870223999,1.8306329250335693,-1.4410558938980103,0.9099056720733643,13.08655071258545,0.04095292091369629,1.4959522485733032,0.12369140982627869,1.1749284267425537,0.05038180947303772,0.0,-1.401594877243042,2.1312012672424316,9.86232852935791,-0.09854084253311157,1.5579605102539062,-2.449090003967285,0.5829420685768127,1.6509732007980347,3.3644063472747803,-1.5451735258102417,0.17591507732868195,8.202801704406738,72,41,31,22,0.025092889,-0.01678795,3.0019546,-1.3166667,-0.05219795,0.23222762,0.44651863,2.8395233,16.24466
1782388559.1676748,-0.01714448630809784,3.061663866043091,-2.7212109565734863,0.3900797367095947,2.2090485095977783,-1.0637460947036743,-1.4311668872833252,-1.4720250368118286,12.849475860595703,-0.057217180728912354,1.2517942190170288,0.5937187671661377,1.0464966297149658,0.8409886956214905,1.8058946132659912,-1.4368222951889038,1.5023552179336548,12.233080863952637,0.04818928241729736,1.375810980796814,0.0,1.1750798225402832,0.10076361894607544,0.0,-1.3930644989013672,2.6346821784973145,9.056272506713867,-0.09254586696624756,1.9300109148025513,-3.0180704593658447,0.5886645317077637,1.7091060876846313,2.9191172122955322,-1.5450630187988281,0.008088049478828907,8.297632217407227,72,41,24,22,0.020282762,-0.016931035,3.0027542,-1.2016182,-0.059654802,0.20026968,0.8643068,3.2261868,12.023681
1782388559.1687732,-0.012057855725288391,3.5151002407073975,1.1132227182388306,0.4012824296951294,4.790147304534912,2.820164203643799,-1.4332995414733887,-1.3143080472946167,7.681236743927002,-0.05497664213180542,1.3486822843551636,1.4842969179153442,1.048071026802063,0.1937761902809143,1.0390079021453857,-1.43167245388031,1.8946256637573242,9.957158088684082,0.04994535446166992,1.0580179691314697,-1.3606054782867432,1.175261378288269,0.17827409505844116,0.8905781507492065,-1.3895576000213623,2.478987216949463,4.883749008178711,-0.08673262596130371,1.612217903137207,-2.597519636154175,0.5919647812843323,2.174168825149536,4.576581954956055,-1.544952392578125,0.1395188570022583,16.073698043823242,72,34,24,22,0.018273154,-0.017330412,3.0031266,-1.0471548,-0.23116235,0.20772654,0.8643068,3.2261868,12.023681
1782388559.169828,-0.00627484917640686,4.131308555603027,1.0390079021453857,0.41009318828582764,5.941177845001221,1.9295859336853027,-1.435321569442749,-1.4032765626907349,7.823481559753418,-0.05264526605606079,1.6858528852462769,1.3111289739608765,1.0482829809188843,0.04263076186180115,1.0637460947036743,-1.4286236763000488,1.9916822910308838,9.577837944030762,0.05073261260986328,0.4999426007270813,-1.2121758460998535,1.1770174503326416,0.6472124457359314,0.7916250228881836,-1.3859559297561646,2.175685405731201,4.646674156188965,-0.0841590166091919,1.4261927604675293,-2.424351692199707,0.599655270576477,2.619854211807251,4.081816673278809,-1.5437991619110107,0.8350911140441895,15.836623191833496,72,34,24,26,0.016482988,-0.017691176,3.0034575,-0.91825783,-0.21624866,0.16724649,0.8643068,3.2261868,12.023681
1782388559.17086,0.000810086727142334,4.3793416023254395,0.9895312786102295,0.41953980922698975,6.069070339202881,1.5090352296829224,-1.4379122257232666,-1.5347074270248413,8.013141632080078,-0.049375295639038086,1.7633633613586426,1.0884844064712524,1.0484949350357056,0.0852615237236023,0.9647929668426514,-1.4248955249786377,1.9350658655166626,9.29334831237793,0.05100506544113159,0.15502095222473145,-1.1132227182388306,1.1785616874694824,0.8719928860664368,0.6679335832595825,-1.3827649354934692,2.1251351833343506,4.4095988273620605,-0.08206987380981445,1.3176780939102173,-2.449090003967285,0.6041363477706909,2.2981855869293213,4.230246067047119,-1.5420141220092773,1.277911901473999,15.836623191833496,42,34,24,26,0.014729296,-0.018188264,3.0037441,-0.8958873,-0.21731392,0.17044228,-1.4820108,0.31124622,11.198878
1782388559.1718953,0.010710850358009338,5.042056560516357,0.6679335832595825,0.43004608154296875,3.840644121170044,4.180769443511963,-1.4409452676773071,-1.6277201175689697,7.823481559753418,-0.046044766902923584,1.7013548612594604,1.2863906621932983,1.048797607421875,0.05813286080956459,0.940054714679718,-1.4207409620285034,2.2707200050354004,8.866612434387207,0.05124729871749878,0.18602514266967773,-1.3606054782867432,1.180287480354309,0.852615237236023,0.5937187671661377,-1.3792105913162231,1.9451760053634644,4.4570136070251465,-0.07949626445770264,1.263420820236206,-2.399613380432129,0.608254075050354,1.7788654565811157,4.725011825561523,-1.5393128395080566,1.5549275875091553,15.78920841217041,42,34,22,26,0.013203031,-0.018653043,3.0040576,-0.6625944,-0.18109493,0.18748651,-1.4820108,0.31124622,11.198878
1782388559.1789079,0.020006045699119568,4.177814483642578,1.2616523504257202,0.43637406826019287,3.2554402351379395,4.428152561187744,-1.444246768951416,-1.6135659217834473,7.965726852416992,-0.043047308921813965,1.3254292011260986,1.558511734008789,1.0491306781768799,0.1666475236415863,0.8658398389816284,-1.4159544706344604,2.402150869369507,8.487292289733887,0.05206477642059326,0.45731180906295776,-1.6822031736373901,1.181922435760498,0.852615237236023,0.6431953310966492,-1.3756089210510254,1.805657148361206,4.3147687911987305,-0.07668048143386841,1.1820347309112549,-2.4985663890838623,0.608254075050354,1.7788654565811157,4.725011825561523,-1.5359797477722168,1.7510628700256348,15.836623191833496,42,28,22,32,0.011771698,-0.01900034,3.004424,-0.7339671,-0.24820659,0.19707389,0.6931214,-1.827973,9.465476
1782388559.1800015,0.027696534991264343,1.9648905992507935,3.2407150268554688,0.43637406826019287,3.2554402351379395,4.428152561187744,-1.4476431608200073,-1.7915030717849731,8.202801704406738,-0.04008007049560547,0.9068726301193237,1.7316796779632568,1.0498876571655273,0.3565481901168823,0.6926718950271606,-1.4159544706344604,2.402150869369507,8.487292289733887,0.054032862186431885,0.8409886956214905,-1.979062557220459,1.181922435760498,0.852615237236023,0.6431953310966492,-1.3719913959503174,1.8622734546661377,4.12510871887207,-0.07668048143386841,1.1820347309112549,-2.4985663890838623,0.6113121509552002,1.371935486793518,5.120824337005615,-1.5312564373016357,1.6782703399658203,16.595264434814453,29,28,22,32,0.010419205,-0.019735632,3.0047944,-0.78829557,-0.3994741,0.19813916,0.6931214,-1.827973,9.465476
1782388559.1832213,0.030451789498329163,1.108399748802185,3.6365275382995605,0.4440040588378906,3.146925210952759,4.428152561187744,-1.4523190259933472,-1.787458896636963,8.202801704406738,-0.038202881813049316,0.8642418384552002,1.7069414854049683,1.0506446361541748,0.2867887616157532,0.5937187671661377,-1.4092249870300293,2.61446213722229,8.25021743774414,0.054032862186431885,0.8409886956214905,-1.979062557220459,1.1837997436523438,0.8603663444519043,0.5689804553985596,-1.367283821105957,1.7773489952087402,3.840618371963501,-0.07380408048629761,1.2207900285720825,-2.622257947921753,0.6143398880958557,1.0967732667922974,5.269254207611084,-1.5278759002685547,1.4518049955368042,17.069414138793945,29,28,18,32,0.0089447405,-0.020336196,3.0051298,-0.7552724,-0.25353292,0.17683388,0.6931214,-1.827973,9.465476
1782388559.1842775,0.032298728823661804,0.9068726301193237,3.4386212825775146,0.44906044006347656,2.39119815826416,4.848703384399414,-1.4554784297943115,-1.6297420263290405,7.870896816253662,-0.03665870428085327,0.7751047611236572,1.6822031736373901,1.0513713359832764,0.3565481901168823,0.6679335832595825,-1.4040119647979736,2.749937057495117,8.013141632080078,0.057545006275177,0.9960095882415771,-2.201707124710083,1.1856768131256104,0.8913704752922058,0.5195039510726929,-1.3637611865997314,1.92293381690979,3.6983730792999268,-0.07116997241973877,1.2711718082427979,-2.820164203643799,0.6166409850120544,1.0812711715698242,5.120824337005615,-1.5256011486053467,1.237471580505371,17.211660385131836,29,28,18,37,0.0076405513,-0.020675968,3.0054638,-0.5667206,-0.16618124,0.17789914,2.574964,-1.7848774,8.439561
1782388559.1853395,0.03402453660964966,0.7906069159507751,3.537574291229248,0.45290565490722656,2.100533962249756,5.120824337005615,-1.4578006267547607,-1.3547483682632446,7.444161415100098,-0.035114586353302,0.7324740290641785,1.6822031736373901,1.0520373582839966,0.32554399967193604,0.5689804553985596,-1.3993360996246338,2.8348615169525146,8.013141632080078,0.059331417083740234,0.9805075526237488,-2.2511837482452393,1.1868577003479004,0.852615237236023,0.44528907537460327,-1.3604438304901123,1.9471980333328247,3.3190529346466064,-0.06871747970581055,1.375810980796814,-2.9438555240631104,0.6185787320137024,1.139404058456421,5.096086025238037,-1.524068832397461,0.9847200512886047,17.211660385131836,17,24,18,37,0.006709396,-0.021249069,3.0058048,-0.3877562,-0.29933926,0.17470334,2.574964,-1.7848774,8.439561
1782388559.1897373,0.03687062859535217,0.7208474278450012,4.700273513793945,0.46077775955200195,2.2012975215911865,4.527105808258057,-1.4610705375671387,-0.43473267555236816,9.86232852935791,-0.03323739767074585,0.29066428542137146,1.5832500457763672,1.0537025928497314,0.5270712375640869,1.6822031736373901,-1.3890364170074463,2.274763822555542,0.0,0.06114804744720459,0.9340012669563293,-2.226445436477661,1.1896432638168335,0.6937187314033508,0.470027357339859,-1.3525136709213257,1.9391099214553833,0.3319052755832672,-0.06453919410705566,0.8758683800697327,-2.622257947921753,0.6234837174415588,1.6587241888046265,8.213109970092773,-1.521383285522461,0.6126697659492493,18.58669662475586,17,24,12,37,0.005298554,-0.022460999,3.0061839,-0.31318772,-0.2631203,0.06178533,0.78649527,-1.9153614,9.7563715
1782388559.1907978,0.038505613803863525,0.6898432374000549,4.848703384399414,0.465501070022583,2.4997129440307617,5.4176836013793945,-1.4607704877853394,0.2891477644443512,9.388177871704102,-0.032964885234832764,0.10463915020227432,1.7069414854049683,1.0537025928497314,0.5270712375640869,1.6822031736373901,-1.3859244585037231,1.350704312324524,-0.04741504043340683,0.06278306245803833,0.7557271122932434,-2.2511837482452393,1.1910359859466553,0.6278348565101624,0.17316797375679016,-1.349022626876831,1.8076791763305664,0.2844902276992798,-0.06305557489395142,0.5968306660652161,-3.537574291229248,0.6283583641052246,2.278808116912842,7.817296981811523,-1.520119547843933,0.4953930377960205,18.728940963745117,17,23,12,49,0.0049808887,-0.022784524,3.0063314,-0.08841694,-0.09800432,0.06817692,0.78649527,-1.9153614,9.7563715
1782388559.1944115,0.039141446352005005,0.2480335235595703,5.368206977844238,0.4709510803222656,2.8485100269317627,5.244515895843506,-1.4592854976654053,0.7986949682235718,9.103687286376953,-0.03308600187301636,-0.16277199983596802,1.8058946132659912,1.055640459060669,0.852615237236023,1.4595586061477661,-1.3842025995254517,0.7218584418296814,0.0,0.0643877387046814,0.8022334575653076,-2.399613380432129,1.192004919052124,0.4805649518966675,0.22264453768730164,-1.3452787399291992,1.6115440130233765,0.23707520961761475,-0.06248033046722412,0.1666475236415863,-3.290191411972046,0.6337175369262695,2.755497455596924,7.3967461585998535,-1.5193296670913696,0.36800625920295715,19.013431549072266,0,23,11,49,0.0049817753,-0.023088861,3.006466,0.05006742,-0.1789644,0.05219795,0.32800564,-2.944868,11.859678
1782388559.1954668,0.039141446352005005,0.2480335235595703,5.368206977844238,0.4760981798171997,2.662484884262085,5.4176836013793945,-1.4571845531463623,1.1262609958648682,9.198517799377441,-0.03344929218292236,-0.2480335235595703,2.003800868988037,1.057275414466858,0.8177355527877808,1.4842969179153442,-1.38347589969635,0.19411319494247437,0.04741504043340683,0.06568968296051025,0.6355859041213989,-2.2511837482452393,1.1926710605621338,0.31779295206069946,0.22264453768730164,-1.3421350717544556,1.5630156993865967,0.04741504043340683,-0.06235921382904053,0.03100419044494629,-3.265453338623047,0.638985812664032,2.743870973587036,7.322531700134277,-1.5193296670913696,0.36800625920295715,19.013431549072266,0,23,11,49,0.0050411425,-0.02352927,3.0066197,0.08522114,-0.20133495,0.08415588,0.32800564,-2.944868,11.859678
1782388559.199759,0.03877811133861542,-0.2519090473651886,5.714543342590332,0.48115456104278564,2.003645658493042,5.8382344245910645,-1.4542146921157837,1.2273615598678589,9.245932579040527,-0.034175992012023926,-0.34492161870002747,2.0285391807556152,1.059152603149414,0.852615237236023,1.4595586061477661,-1.3835233449935913,-0.06066037341952324,-0.09483008086681366,0.06680995225906372,0.4999426007270813,-2.201707124710083,1.193306803703308,0.2829132378101349,0.2721211016178131,-1.3421350717544556,1.5630156993865967,0.04741504043340683,-0.06245005130767822,-0.05813286080956459,-3.1912384033203125,0.6445568799972534,2.534592628479004,7.421484470367432,-1.5189663171768188,0.1253647804260254,19.392751693725586,0,23,11,49,0.0051888307,-0.023910701,3.0067904,0.121440135,-0.17789914,0.079894826,1.9057846,-3.3363202,9.647436
1782388559.200893,0.03826339542865753,-0.27128666639328003,5.6155900955200195,0.48481810092926025,1.705230474472046,6.060879230499268,-1.451781988143921,1.1747891902923584,9.48300838470459,-0.034690678119659424,-0.2209048718214035,1.9295859336853027,1.0612720251083374,1.0618934631347656,1.1132227182388306,-1.3838865756988525,-0.19815722107887268,-0.3319052755832672,0.06786966323852539,0.4650628864765167,-2.1522305011749268,1.1938215494155884,0.1937761902809143,0.24738281965255737,-1.3389283418655396,1.5104433298110962,0.0,-0.06269222497940063,-0.12401676177978516,-3.1912384033203125,0.6504004001617432,2.4105756282806396,7.421484470367432,-1.518934726715088,0.0040440247394144535,19.392751693725586,0,23,11,60,0.005349742,-0.02432471,3.0069435,0.11398328,-0.18642126,0.060720067,1.9057846,-3.3363202,9.647436
1782388559.2019415,0.038081735372543335,-0.13176780939102173,5.467160224914551,0.48772478103637695,1.503703236579895,6.0361409187316895,-1.4497599601745605,1.0999747514724731,9.625253677368164,-0.03496319055557251,-0.15502095222473145,1.7316796779632568,1.0633611679077148,1.1626571416854858,0.8905781507492065,-1.3842815160751343,-0.18400312960147858,-0.3319052755832672,0.06859630346298218,0.3642992377281189,-2.1522305011749268,1.194215178489685,0.24415801465511322,0.2721211016178131,-1.3336678743362427,1.3547483682632446,-0.2844902276992798,-0.06281334161758423,-0.003875523805618286,-3.265453338623047,0.6546998023986816,2.5074639320373535,7.273055076599121,-1.5190927982330322,-0.016176098957657814,19.250507354736328,0,23,10,60,0.0054710303,-0.02479141,3.0070417,0.09693905,-0.23009709,0.031957928,1.9057846,-3.3363202,9.647436
1782388559.2029762,0.03799089789390564,-0.054257333278656006,5.442421913146973,0.49044978618621826,1.4959522485733032,6.0361409187316895,-1.4478169679641724,1.0231382846832275,9.957158088684082,-0.034842073917388916,0.06200838088989258,1.6079883575439453,1.065510869026184,1.197536826133728,0.7916250228881836,-1.3847554922103882,-0.22848741710186005,-0.3319052755832672,0.06911104917526245,0.3061663806438446,-2.1027538776397705,1.194669246673584,0.25966009497642517,0.22264453768730164,-1.331140398979187,1.3466603755950928,-0.23707520961761475,-0.06287389993667603,0.06588390469551086,-3.339668035507202,0.6582120060920715,2.232301712036133,7.198840141296387,-1.519187569618225,-0.012132074683904648,19.013431549072266,0,23,10,60,0.005477393,-0.025207436,3.0070739,0.053263217,-0.18855178,0.0,2.0482395,0.17597382,5.3043537
1782388559.208058,0.037900060415267944,0.007751047611236572,5.4176836013793945,0.49335646629333496,1.5502095222473145,5.862972736358643,-1.4461266994476318,0.7461225986480713,10.24164867401123,-0.03432738780975342,0.2829132378101349,1.4100821018218994,1.0679936408996582,1.201412320137024,0.7916250228881836,-1.3852925300598145,-0.23455344140529633,-0.3319052755832672,0.06950467824935913,0.14726990461349487,-2.003800868988037,1.1951839923858643,0.2247803807258606,0.14842969179153442,-1.331140398979187,1.3466603755950928,-0.23707520961761475,-0.06275278329849243,0.07363495230674744,-3.488097667694092,0.6630867123603821,2.007521390914917,7.3967461585998535,-1.519076943397522,0.09099055826663971,18.96601676940918,0,12,10,60,0.0054454,-0.02562107,3.0070293,0.011717907,-0.19174758,-0.040480044,2.0482395,0.17597382,5.3043537
1782388559.2102826,0.03811201453208923,0.11626572161912918,5.31873083114624,0.5011074542999268,1.7594877481460571,5.4176836013793945,-1.4449418783187866,0.5216792225837708,10.478723526000977,-0.033812642097473145,0.24415801465511322,1.5090352296829224,1.0735647678375244,1.0851466655731201,-0.049476563930511475,-1.3869986534118652,-0.5985156893730164,-4.030278205871582,0.06995880603790283,0.20152723789215088,-0.9895312786102295,1.196728229522705,0.40305447578430176,0.8658398389816284,-1.3259905576705933,1.207141399383545,-0.1422451138496399,-0.06123894453048706,0.5270712375640869,-2.9438555240631104,0.6670833230018616,1.9300109148025513,7.198840141296387,-1.518903136253357,0.05257232487201691,19.155675888061523,0,12,9,58,0.0053116977,-0.026622787,3.006928,0.0149137005,-0.23329288,-0.033023193,1.2677298,0.94451255,5.145139
1782388559.2113538,0.03856617212295532,0.14726990461349487,5.541375160217285,0.5053160190582275,1.9067578315734863,5.096086025238037,-1.444309949874878,0.20017921924591064,9.577837944030762,-0.033146560192108154,0.1976517289876938,1.3853437900543213,1.075714349746704,0.9223746657371521,-0.024738281965255737,-1.3869986534118652,-0.5985156893730164,-4.030278205871582,0.07071572542190552,0.32166847586631775,-0.9647929668426514,1.196728229522705,0.40305447578430176,0.8658398389816284,-1.324079155921936,0.5762735605239868,-7.207086086273193,-0.05945253372192383,0.6123327612876892,-2.9438555240631104,0.6718369126319885,1.9687659740447998,6.827765941619873,-1.5189663171768188,-0.0384182371199131,18.254791259765625,0,12,9,58,0.005272199,-0.02719947,3.0069106,-0.01704423,-0.25885922,-0.013848436,1.2677298,0.94451255,5.145139
1782388559.212386,0.039383664727211,0.40305447578430176,5.34346866607666,0.5053160190582275,1.9067578315734863,5.096086025238037,-1.4444996118545532,-0.11929873377084732,9.625253677368164,-0.03241986036300659,0.2829132378101349,1.2121758460998535,1.0774099826812744,0.7751047611236572,-0.024738281965255737,-1.389462947845459,-1.148503065109253,-3.6035430431365967,0.07123047113418579,0.3022908568382263,-0.940054714679718,1.1981209516525269,0.6704655885696411,0.6926718950271606,-1.3246636390686035,-0.5439213514328003,-6.4484453201293945,-0.05805981159210205,0.7053453326225281,-2.9438555240631104,0.6761968731880188,2.057903289794922,6.60512113571167,-1.5189980268478394,-0.006066037341952324,18.017715454101562,0,12,9,60,0.005052162,-0.027817497,3.0068784,-0.13635384,-0.28549084,-0.020240022,-0.061052144,-0.18555063,8.275558
1782388559.2175395,0.04047365486621857,0.5386977791786194,5.120824337005615,0.5097365379333496,2.224550485610962,4.626058578491211,-1.4451314210891724,-0.29116979241371155,9.245932579040527,-0.03145098686218262,0.43793419003486633,1.0884844064712524,1.0788027048110962,0.600706160068512,-0.024738281965255737,-1.3924012184143066,-1.5225753784179688,-3.2716376781463623,0.07177549600601196,0.2829132378101349,-1.0390079021453857,1.1999375820159912,0.8874949812889099,0.5442422032356262,-1.3268752098083496,-1.2212954759597778,-6.401030540466309,-0.05805981159210205,0.7053453326225281,-2.9438555240631104,0.6804054379463196,2.14316463470459,6.4814300537109375,-1.518934726715088,0.05863836035132408,17.92288589477539,5,12,9,60,0.0046734856,-0.028550697,3.006802,-0.18961705,-0.35366777,-0.036218986,-0.061052144,-0.18555063,8.275558
1782388559.2186,0.04198753833770752,0.7324740290641785,4.997132778167725,0.5141267776489258,2.3834471702575684,4.329199314117432,-1.4456685781478882,-0.23859746754169464,9.103687286376953,-0.03033071756362915,0.4185566008090973,1.0884844064712524,1.0799834728240967,0.45731180906295776,0.024738281965255737,-1.3958290815353394,-1.6499621868133545,-3.4612979888916016,0.07177549600601196,0.2829132378101349,-1.0390079021453857,1.2018147706985474,1.0037606954574585,0.470027357339859,-1.3298766613006592,-1.5326855182647705,-6.685520648956299,-0.056727588176727295,0.5619509220123291,-2.9685938358306885,0.6853709816932678,2.054027557373047,6.407215118408203,-1.518839955329895,0.05055030807852745,17.733224868774414,5,12,9,60,0.0043238383,-0.029303614,3.0067325,-0.15765911,-0.34194985,-0.029827401,-0.061052144,-0.18555063,8.275558
1782388559.219643,0.04350140690803528,0.7130963802337646,5.096086025238037,0.5191528797149658,2.577223300933838,3.958125114440918,-1.4461266994476318,-0.20826728641986847,8.961442947387695,-0.029573798179626465,0.3410460948944092,1.2616523504257202,1.0799834728240967,0.45731180906295776,0.024738281965255737,-1.3993202447891235,-1.767238974571228,-3.5087130069732666,0.07295626401901245,0.7285984754562378,-1.3853437900543213,1.204115867614746,1.0037606954574585,0.2721211016178131,-1.333889126777649,-1.8501412868499756,-6.4484453201293945,-0.05551648139953613,0.5425733327865601,-2.9438555240631104,0.6897006630897522,2.1702933311462402,6.135093688964844,-1.5187451839447021,0.0040440247394144535,18.017715454101562,5,13,9,55,0.003989673,-0.02989542,3.0066469,-0.15978965,-0.2801645,-0.045806367,-0.22146365,-0.6356605,8.12233
1782388559.2207065,0.04480333626270294,0.6665900945663452,5.145562648773193,0.5241789817810059,2.608227491378784,3.8839101791381836,-1.4463794231414795,-0.11727672070264816,8.866612434387207,-0.028998494148254395,0.27128666639328003,1.1626992225646973,1.0831021070480347,0.961129903793335,-0.3463359475135803,-1.4027955532073975,-1.981572151184082,-3.129392623901367,0.07471239566802979,0.9495033025741577,-1.6327266693115234,1.2062958478927612,1.0967732667922974,0.24738281965255737,-1.3377593755722046,-2.3192481994628906,-5.310484409332275,-0.05457788705825806,0.4689383804798126,-2.869640827178955,0.6940909028053284,2.174168825149536,6.0361409187316895,-1.5186504125595093,0.05863836035132408,18.06513023376465,9,13,9,55,0.0036374452,-0.030490503,3.0065622,-0.1821602,-0.30573085,-0.04687163,-0.22146365,-0.6356605,8.12233
1782388559.22174,0.04574194550514221,0.5580754280090332,5.145562648773193,0.5318088531494141,2.1586668491363525,4.230246067047119,-1.446521520614624,-0.09705659747123718,8.866612434387207,-0.028271853923797607,0.3875523805618286,0.9647929668426514,1.0850701332092285,1.1820347309112549,-0.6431953310966492,-1.4064289331436157,-2.216125726699829,-2.5129971504211426,0.07749789953231812,0.631710410118103,-1.3606054782867432,1.208294153213501,1.2479186058044434,0.14842969179153442,-1.3419455289840698,-2.7560031414031982,-4.599258899688721,-0.05288231372833252,0.5115691423416138,-3.0180704593658447,0.6977847814559937,2.1044094562530518,5.986664295196533,-1.5186504125595093,0.012132074683904648,18.254791259765625,9,13,8,55,0.0032475975,-0.031095862,3.0064554,-0.18748651,-0.29614347,-0.05752427,0.061052144,-0.35553896,4.1264067
1782388559.222766,0.04649887979030609,0.45731180906295776,5.096086025238037,0.5352605581283569,1.980392575263977,3.982863426208496,-1.446584701538086,-0.05863836035132408,8.819197654724121,-0.027242422103881836,0.600706160068512,0.8411015868186951,1.0873712301254272,1.2285410165786743,-0.7916250228881836,-1.4142799377441406,-2.7216286659240723,-1.8491865396499634,0.07837599515914917,0.4224320948123932,-1.2121758460998535,1.2102017402648926,1.290549397468567,-0.024738281965255737,-1.3469058275222778,-3.241286039352417,-4.030278205871582,-0.051913440227508545,0.6394614577293396,-3.042808771133423,0.7009033560752869,2.1896708011627197,5.887711048126221,-1.5186820030212402,-0.022242136299610138,18.017715454101562,9,5,8,56,0.0030711263,-0.031360507,3.006399,-0.16618124,-0.262055,-0.05752427,0.061052144,-0.35553896,4.1264067
1782388559.230186,0.048709139227867126,0.4805649518966675,4.749750137329102,0.5437988042831421,2.5423436164855957,4.823965072631836,-1.4466164112091064,0.016176098957657814,8.866612434387207,-0.02482020854949951,0.5464488863945007,0.7916250228881836,1.0925184488296509,1.3215537071228027,0.5937187671661377,-1.4191454648971558,-2.8287954330444336,-1.4698662757873535,0.07955676317214966,0.3061663806438446,-0.940054714679718,1.2149553298950195,1.3293046951293945,-0.17316797375679016,-1.3599698543548584,-4.4342732429504395,-6.069125175476074,-0.0498848557472229,0.4689383804798126,-3.1417617797851562,0.7084121704101562,2.1509158611297607,5.640328407287598,-1.5186978578567505,0.012132074683904648,17.40131950378418,9,5,8,56,0.0022502162,-0.032898445,3.0061736,-0.12357066,-0.3312972,-0.04261057,0.39504328,-0.8726865,7.442376
1782388559.2312582,0.049375250935554504,0.45343631505966187,4.576581954956055,0.5481284856796265,2.5074639320373535,4.823965072631836,-1.4466480016708374,-0.02022012509405613,8.582121849060059,-0.02397245168685913,0.3681747615337372,0.8658398389816284,1.095606803894043,1.6083422899246216,0.5937187671661377,-1.4316251277923584,-3.5364997386932373,-4.694088935852051,0.08004122972488403,0.2751621901988983,-0.8658398389816284,1.2177104949951172,1.2324166297912598,0.2721211016178131,-1.3709172010421753,-4.723421096801758,-5.64238977432251,-0.04903709888458252,0.4728139042854309,-3.265453338623047,0.7128326892852783,2.0811562538146973,5.887711048126221,-1.5187451839447021,-0.008088049478828907,17.353904724121094,9,5,8,56,0.0019134769,-0.033520143,3.006069,-0.17044228,-0.29507822,-0.05645901,0.39504328,-0.8726865,7.442376
1782388559.2323005,0.050283581018447876,0.5154446363449097,4.5023674964904785,0.5525490045547485,2.2865591049194336,4.700273513793945,-1.4466480016708374,0.010110062547028065,8.582121849060059,-0.023245811462402344,0.3914279043674469,0.8411015868186951,1.0990583896636963,1.860251545906067,0.44528907537460327,-1.438591480255127,-3.79329514503479,-4.4095988273620605,0.08052569627761841,0.3061663806438446,-0.8658398389816284,1.220314383506775,1.461072564125061,0.2721211016178131,-1.3798425197601318,-5.115691661834717,-5.2630696296691895,-0.04815906286239624,0.523195743560791,-3.265453338623047,0.7169504165649414,2.278808116912842,5.76401948928833,-1.5187926292419434,-0.028308173641562462,17.259075164794922,9,5,8,56,0.0015985564,-0.03416328,3.005924,-0.120374866,-0.35473302,-0.07882956,-0.10654198,-0.79966336,9.93474
1782388559.233368,0.051191896200180054,0.3294195234775543,4.576581954956055,0.5525490045547485,2.2865591049194336,4.700273513793945,-1.446695327758789,-0.028308173641562462,8.582121849060059,-0.022307157516479492,0.2829132378101349,0.940054714679718,1.1032366752624512,2.015272378921509,0.24738281965255737,-1.438591480255127,-3.79329514503479,-4.4095988273620605,0.08101010322570801,0.2480335235595703,-0.8658398389816284,1.2232513427734375,1.588964819908142,0.07421484589576721,-1.3898893594741821,-5.368443012237549,-4.4095988273620605,-0.04712957143783569,0.4960670471191406,-3.265453338623047,0.7207654118537903,2.015272378921509,5.714543342590332,-1.518776774406433,-0.016176098957657814,17.353904724121094,9,5,8,56,0.0014244282,-0.03493888,3.0057564,-0.07137271,-0.38882148,-0.08096009,-0.10654198,-0.79966336,9.93474
1782388559.2343981,0.051767170429229736,0.13176780939102173,4.823965072631836,0.5614506006240845,2.356318473815918,4.5023674964904785,-1.446790099143982,-0.07481446117162704,8.582121849060059,-0.021641075611114502,0.34492161870002747,0.8905781507492065,1.1067185401916504,2.178044319152832,0.12369140982627869,-1.4541831016540527,-4.393833160400391,-3.3190529346466064,0.0812826156616211,0.15114542841911316,-0.7916250228881836,1.2268543243408203,1.790492057800293,-0.07421484589576721,-1.4018950462341309,-5.702075004577637,-3.888033390045166,-0.04631209373474121,0.45731180906295776,-3.339668035507202,0.7252464890480042,2.1702933311462402,5.6155900955200195,-1.5187926292419434,-0.026286162436008453,17.353904724121094,9,5,8,56,0.0012557955,-0.03562673,3.0056193,-0.077764295,-0.31425297,-0.07882956,-0.10654198,-0.79966336,9.93474
1782388559.2354314,0.051979124546051025,0.10076361894607544,4.749750137329102,0.5651746988296509,2.212924003601074,4.4776291847229,-1.4468848705291748,-0.06470439583063126,8.629537582397461,-0.021217167377471924,0.29841533303260803,0.8411015868186951,1.109958291053772,2.0230236053466797,0.049476563930511475,-1.4616867303848267,-4.660738945007324,-2.6078271865844727,0.08149456977844238,0.20152723789215088,-0.7421484589576721,1.231971263885498,1.461072564125061,-0.07421484589576721,-1.4114521741867065,-6.142873764038086,-3.4138829708099365,-0.04546433687210083,0.5386977791786194,-3.3891446590423584,0.7322102785110474,1.9610151052474976,5.4176836013793945,-1.5187926292419434,-0.014154086820781231,17.211660385131836,9,5,8,57,0.0010358564,-0.036092747,3.0054483,-0.08522114,-0.23009709,-0.092677996,0.12689269,0.094570965,5.1966147
1782388559.2364542,0.05231216549873352,0.20540276169776917,4.700273513793945,0.5680208206176758,2.042401075363159,4.576581954956055,-1.4471534490585327,-0.11929873377084732,8.629537582397461,-0.020157456398010254,0.3022908568382263,0.7916250228881836,1.1126530170440674,1.8563759326934814,0.07421484589576721,-1.4693481922149658,-4.824521541595459,-2.133676767349243,0.08167624473571777,0.20152723789215088,-0.7668867111206055,1.234181523323059,1.399064064025879,-0.049476563930511475,-1.4308667182922363,-6.2217326164245605,-2.6552422046661377,-0.04485881328582764,0.45343631505966187,-3.339668035507202,0.735783040523529,2.1160359382629395,5.269254207611084,-1.5187926292419434,-0.008088049478828907,17.259075164794922,8,5,8,57,0.000972415,-0.036606047,3.0052965,0.0053263213,-0.27696872,-0.075633764,0.12689269,0.094570965,5.1966147
1782388559.245676,0.053371891379356384,0.34879714250564575,4.5023674964904785,0.5713210105895996,2.0230236053466797,4.4776291847229,-1.4472798109054565,-0.11929873377084732,8.582121849060059,-0.01976388692855835,0.17827409505844116,0.8905781507492065,1.1154687404632568,1.7129814624786377,0.14842969179153442,-1.4772467613220215,-4.986282825469971,-1.896601676940918,0.08179730176925659,0.11626572161912918,-0.8411015868186951,1.236149549484253,1.4261927604675293,-0.049476563930511475,-1.4413084983825684,-6.2985687255859375,-2.2759218215942383,-0.04419267177581787,0.3914279043674469,-3.1912384033203125,0.7388107776641846,2.14316463470459,5.219777584075928,-1.5187451839447021,0.04246226325631142,17.259075164794922,8,5,9,57,0.0009877768,-0.036898013,3.00523,0.02237055,-0.29614347,-0.07137271,0.12689269,0.094570965,5.1966147
1782388559.2467377,0.05415910482406616,0.4263076186180115,4.403414249420166,0.5744396448135376,2.2012975215911865,4.156031608581543,-1.4474536180496216,-0.14760690927505493,8.582121849060059,-0.019521653652191162,0.11626572161912918,0.9647929668426514,1.1199498176574707,1.2750474214553833,0.44528907537460327,-1.4845291376113892,-5.170286178588867,-1.991431713104248,0.08188813924789429,0.03100419044494629,-0.6926718950271606,1.238057017326355,1.2285410165786743,-0.07421484589576721,-1.4509446620941162,-7.00829553604126,-1.991431713104248,-0.0431026816368103,0.4146810472011566,-3.265453338623047,0.7419596910476685,2.088907241821289,5.096086025238037,-1.518776774406433,-0.0020220123697072268,17.40131950378418,8,5,9,57,0.00096267386,-0.03778515,3.0050073,-0.01704423,-0.30360034,-0.08309062,1.1647792,-1.1899183,8.930372
1782388559.2500353,0.0562785267829895,0.45731180906295776,4.428152561187744,0.5823420286178589,2.181919813156128,3.9086484909057617,-1.447927474975586,-0.1678270399570465,8.866612434387207,-0.019461095333099365,-0.1705230474472046,0.470027357339859,1.1247942447662354,1.108399748802185,0.6679335832595825,-1.504907250404358,-5.493807792663574,-4.267353534698486,0.08173680305480957,-0.007751047611236572,-0.6431953310966492,1.2419627904891968,1.0580179691314697,0.0,-1.4775625467300415,-6.76161003112793,-3.888033390045166,-0.042406320571899414,0.34879714250564575,-3.3644063472747803,0.749710738658905,2.003645658493042,4.922918319702148,-1.5190927982330322,-0.20826728641986847,14.414172172546387,8,6,9,60,0.0009316585,-0.039159797,3.004742,0.031957928,-0.35260248,-0.060720067,0.5231331,-1.2090719,8.157045
1782388559.251096,0.0562785267829895,0.45731180906295776,4.428152561187744,0.5868231058120728,2.1160359382629395,4.205507755279541,-1.4482117891311646,-0.14154087007045746,8.866612434387207,-0.019794166088104248,-0.20927830040454865,0.42055079340934753,1.1247942447662354,1.108399748802185,0.6679335832595825,-1.5163284540176392,-5.629282474517822,-3.793203353881836,0.08140373229980469,-0.15114542841911316,-0.7668867111206055,1.2442033290863037,0.8952460289001465,-0.3463359475135803,-1.4950023889541626,-7.155901908874512,-3.4612979888916016,-0.041588783264160156,0.3953034579753876,-3.042808771133423,0.753858745098114,2.0617785453796387,4.89818000793457,-1.5196456909179688,-0.26286160945892334,14.271926879882812,8,6,9,60,0.000981986,-0.039824605,3.0046308,0.05006742,-0.30892664,-0.05219795,0.5231331,-1.2090719,8.157045
1782388559.2521431,0.05730795860290527,0.3836768567562103,4.4776291847229,0.5922428369522095,2.2012975215911865,4.156031608581543,-1.4486699104309082,-0.19815722107887268,8.961442947387695,-0.020127177238464355,-0.14726990461349487,0.42055079340934753,1.1277614831924438,1.1897858381271362,0.5689804553985596,-1.5313040018081665,-6.076147556304932,-3.129392623901367,0.08094954490661621,-0.22865590453147888,-0.7668867111206055,1.2456567287445068,0.6162083148956299,-0.2721211016178131,-1.510672926902771,-7.5987229347229,-3.034562587738037,-0.04061990976333618,0.49219149351119995,-3.067546844482422,0.7583701014518738,2.1237869262695312,4.601320266723633,-1.5196456909179688,-0.26286160945892334,14.271926879882812,8,6,9,60,0.0010789067,-0.040411636,3.004531,0.075633764,-0.28549084,-0.058589537,0.7302315,-0.7350199,8.110358
1782388559.2532048,0.05824656784534454,0.3914279043674469,4.5023674964904785,0.5966936349868774,2.2439284324645996,3.958125114440918,-1.4491596221923828,-0.2406194806098938,9.008857727050781,-0.020339131355285645,-0.11626572161912918,0.42055079340934753,1.1302745342254639,1.201412320137024,0.470027357339859,-1.5445102453231812,-6.409779071807861,-2.6552422046661377,0.0805862545967102,-0.1123901903629303,-0.7916250228881836,1.246625542640686,0.4650628864765167,-0.17316797375679016,-1.510672926902771,-7.5987229347229,-3.034562587738037,-0.0398024320602417,0.3604237139225006,-2.9685938358306885,0.7634264230728149,2.1547911167144775,4.576581954956055,-1.520072102546692,-0.14154087007045746,13.940021514892578,10,6,9,61,0.0012334518,-0.04103394,3.0044236,0.09480853,-0.3046656,-0.059654802,0.7302315,-0.7350199,8.110358
1782388559.2542446,0.05900350213050842,0.3565481901168823,4.576581954956055,0.6010838747024536,2.174168825149536,3.760218858718872,-1.4496493339538574,-0.23859746754169464,9.008857727050781,-0.020339131355285645,-0.11626572161912918,0.42055079340934753,1.1329087018966675,1.216914415359497,0.42055079340934753,-1.5572110414505005,-6.56143045425415,-2.133676767349243,0.08016234636306763,-0.1976517289876938,-0.7916250228881836,1.247533917427063,0.37205028533935547,-0.22264453768730164,-1.5269755125045776,-7.794857978820801,-2.2285068035125732,-0.03916662931442261,0.2790377140045166,-3.042808771133423,0.7675442099571228,1.9997704029083252,4.5023674964904785,-1.5202933549880981,-0.02022012509405613,13.655531883239746,10,6,9,61,0.0014237756,-0.041679513,3.0043125,0.09906958,-0.3046656,-0.062850595,0.7302315,-0.7350199,8.110358
1782388559.2552793,0.05954849720001221,0.24028247594833374,4.601320266723633,0.6056860685348511,2.3408162593841553,3.4386212825775146,-1.4501549005508423,-0.2507295608520508,9.008857727050781,-0.020581364631652832,-0.13176780939102173,0.37107422947883606,1.135240077972412,1.0580179691314697,0.44528907537460327,-1.5707331895828247,-6.901128768920898,-1.4698662757873535,0.07982927560806274,-0.15502095222473145,-0.7668867111206055,1.2484421730041504,0.46118733286857605,-0.2721211016178131,-1.5420773029327393,-7.9101128578186035,-1.4698662757873535,-0.03859132528305054,0.3061663806438446,-3.0180704593658447,0.77163165807724,2.0656542778015137,4.378675937652588,-1.5203090906143188,0.05055030807852745,13.655531883239746,10,6,9,61,0.0016095606,-0.042266585,3.004203,0.10972223,-0.2833603,-0.06178533,0.6667852,-0.80684596,8.47308
1782388559.256323,0.06009349226951599,0.2480335235595703,4.601320266723633,0.6101974248886108,2.274932384490967,3.4386212825775146,-1.4501549005508423,-0.2507295608520508,9.008857727050781,-0.020944714546203613,-0.1976517289876938,0.470027357339859,1.1379952430725098,1.201412320137024,0.2721211016178131,-1.5838762521743774,-6.492682456970215,-1.2802060842514038,0.07937514781951904,-0.21702933311462402,-0.7421484589576721,1.2492899894714355,0.40693002939224243,-0.17316797375679016,-1.557732105255127,-8.027389526367188,-1.1379609107971191,-0.038137197494506836,0.21315380930900574,-3.0180704593658447,0.7757191061973572,1.9300109148025513,4.205507755279541,-1.5202617645263672,0.03033018670976162,13.750361442565918,10,6,9,62,0.001686462,-0.04254879,3.004144,0.09374326,-0.27590346,-0.06604639,0.6667852,-0.80684596,8.47308
1782388559.2655606,0.06103210151195526,0.14726990461349487,4.601320266723633,0.6195532083511353,2.2400527000427246,3.067546844482422,-1.4511816501617432,-0.25275155901908875,9.056272506713867,-0.022276878356933594,-0.4456852376461029,0.6431953310966492,1.1428093910217285,1.069644570350647,0.17316797375679016,-1.6110312938690186,-6.656464576721191,-0.5215654373168945,0.07816404104232788,-0.3100419044494629,-0.6431953310966492,1.250501036643982,0.18214961886405945,-0.07421484589576721,-1.5902897119522095,-8.18510627746582,-0.2844902276992798,-0.037077486515045166,0.3294195234775543,-3.042808771133423,0.7846812605857849,2.2439284324645996,3.78495717048645,-1.520214319229126,-0.05055030807852745,13.845191955566406,14,6,9,62,0.002128285,-0.04393123,3.0039122,0.120374866,-0.28122976,-0.04261057,0.61171854,-0.712275,9.0476885
1782388559.2666416,0.06154681742191315,0.20927830040454865,4.576581954956055,0.6241855621337891,2.2439284324645996,2.9438555240631104,-1.451718807220459,-0.27094969153404236,9.056272506713867,-0.022973299026489258,-0.3604237139225006,0.6679335832595825,1.145201325416565,1.139404058456421,0.22264453768730164,-1.6252169609069824,-7.0143609046936035,-0.09483008086681366,0.07749789953231812,-0.31779295206069946,-0.5937187671661377,1.250501036643982,0.18214961886405945,-0.07421484589576721,-1.6058497428894043,-7.770594120025635,-0.42673537135124207,-0.036502182483673096,0.32554399967193604,-3.067546844482422,0.7846812605857849,2.2439284324645996,3.78495717048645,-1.5201985836029053,0.016176098957657814,13.845191955566406,14,6,9,62,0.0023365554,-0.044489745,3.0038373,0.10865696,-0.27803397,-0.04687163,0.61171854,-0.712275,9.0476885
1782388559.2700386,0.06224319338798523,0.37592580914497375,4.922918319702148,0.6290602684020996,2.5462191104888916,4.205507755279541,-1.4522401094436646,-0.2648836374282837,9.056272506713867,-0.023669660091400146,-0.29841533303260803,0.6431953310966492,1.1470179557800293,0.8719928860664368,-0.5689804553985596,-1.6383442878723145,-6.747455596923828,-2.086261749267578,0.07704377174377441,-0.2247803807258606,-1.0637460947036743,1.2507432699203491,0.10851466655731201,-0.024738281965255737,-1.6235265731811523,-7.889892578125,-0.04741504043340683,-0.035836100578308105,0.3565481901168823,-2.869640827178955,0.7892531752586365,2.360193967819214,3.5870509147644043,-1.520214319229126,0.008088049478828907,13.79777717590332,14,6,9,62,0.0025154122,-0.04502599,3.0037544,0.090547465,-0.2684466,-0.04900216,0.2896984,-0.40940848,9.246407
1782388559.2711008,0.0633029192686081,0.5309467315673828,4.823965072631836,0.6344799995422363,2.71286678314209,4.3044610023498535,-1.452824592590332,-0.31138989329338074,8.4398775100708,-0.02445685863494873,-0.3642992377281189,0.5937187671661377,1.1481988430023193,0.4495607614517212,-0.5689804553985596,-1.6383442878723145,-6.747455596923828,-2.086261749267578,0.07628679275512695,-0.34492161870002747,-0.9647929668426514,1.250470757484436,-0.21702933311462402,-1.2863906621932983,-1.6392602920532227,-8.011213302612305,-1.3276211023330688,-0.03486722707748413,0.41080552339553833,-2.9191172122955322,0.7937039732933044,2.4958372116088867,4.428152561187744,-1.520182728767395,0.0020220123697072268,13.79777717590332,15,6,9,62,0.0026654731,-0.04552477,3.0036542,0.09480853,-0.23329288,-0.05219795,0.2896984,-0.40940848,9.246407
1782388559.2721498,0.06463511288166046,0.5154446363449097,4.823965072631836,0.6344799995422363,2.71286678314209,4.3044610023498535,-1.453614354133606,-0.38822638988494873,8.4398775100708,-0.0250321626663208,-0.29066428542137146,0.6431953310966492,1.1488044261932373,0.23640695214271545,-0.37107422947883606,-1.6543781757354736,-6.929436683654785,-1.8017715215682983,0.07565099000930786,-0.3061663806438446,-1.0637460947036743,1.2490780353546143,-0.7208474278450012,-1.0390079021453857,-1.6554995775222778,-8.272052764892578,-1.1379609107971191,-0.03392857313156128,0.45731180906295776,-2.869640827178955,0.7988814115524292,2.5384681224823,4.329199314117432,-1.5201985836029053,-0.0040440247394144535,13.79777717590332,15,6,9,62,0.002874187,-0.046004772,3.0035584,0.121440135,-0.24820659,-0.05645901,0.5638345,-0.37469256,8.820239
1782388559.2772872,0.06581594049930573,0.4185566008090973,4.947656631469727,0.6393547058105469,2.5539700984954834,4.527105808258057,-1.454656958580017,-0.49337100982666016,8.771782875061035,-0.02572852373123169,-0.29453980922698975,0.6926718950271606,1.1489558219909668,-0.007751047611236572,-0.24738281965255737,-1.669006109237671,-7.257002353668213,-1.2327910661697388,0.07565099000930786,-0.3061663806438446,-1.0637460947036743,1.24726140499115,-0.852615237236023,-0.8905781507492065,-1.6715493202209473,-7.948531150817871,-0.9008857607841492,-0.03392857313156128,0.45731180906295776,-2.869640827178955,0.803665280342102,2.4648332595825195,4.3044610023498535,-1.5201985836029053,0.018198112025856972,13.750361442565918,15,6,9,64,0.0030177187,-0.0465867,3.0034795,0.06604639,-0.28868663,-0.036218986,0.5638345,-0.37469256,8.820239
1782388559.2783604,0.06581594049930573,0.4185566008090973,4.947656631469727,0.6442898511886597,2.480335235595703,4.5023674964904785,-1.4559049606323242,-0.5803175568580627,8.771782875061035,-0.02651578187942505,-0.3681747615337372,0.6926718950271606,1.1489558219909668,-0.007751047611236572,-0.24738281965255737,-1.6848505735397339,-6.992118835449219,-1.2327910661697388,0.07486379146575928,-0.3604237139225006,-1.0390079021453857,1.2450511455535889,-0.8177355527877808,-1.0390079021453857,-1.6915640830993652,-7.873716831207275,-0.4741504192352295,-0.033141374588012695,0.3604237139225006,-2.869640827178955,0.809387743473053,2.3291897773742676,4.3044610023498535,-1.520214319229126,0.012132074683904648,13.79777717590332,16,6,9,64,0.0031127073,-0.04713888,3.0034502,0.058589537,-0.262055,-0.021305285,0.5638345,-0.37469256,8.820239
1782388559.2794087,0.06678484380245209,0.4689383804798126,4.89818000793457,0.6506785154342651,2.274932384490967,4.329199314117432,-1.457642674446106,-0.6692861318588257,8.866612434387207,-0.02651578187942505,-0.3681747615337372,0.6926718950271606,1.1487438678741455,-0.03875523805618286,-0.14842969179153442,-1.7040754556655884,-6.977964878082275,-0.9008857607841492,0.07416737079620361,-0.29066428542137146,-0.9647929668426514,1.2425986528396606,-0.848739743232727,-0.8905781507492065,-1.6915640830993652,-7.873716831207275,-0.4741504192352295,-0.03244501352310181,0.37592580914497375,-2.869640827178955,0.8155946135520935,2.135413646697998,4.3044610023498535,-1.520214319229126,0.012132074683904648,13.79777717590332,16,6,9,64,0.0031770235,-0.04759468,3.0034459,0.045806367,-0.2119876,-0.012783172,1.4760253,-1.0606314,8.09719
1782388559.2804406,0.06772343814373016,0.35267266631126404,4.89818000793457,0.65485680103302,2.4222023487091064,3.982863426208496,-1.458811640739441,-0.606603741645813,8.771782875061035,-0.02718186378479004,-0.22865590453147888,0.6431953310966492,1.1486833095550537,0.007751047611236572,-0.24738281965255737,-1.717423915863037,-7.1296162605285645,-0.3319052755832672,0.07319849729537964,-0.34492161870002747,-0.8905781507492065,1.240872859954834,-0.9223746657371521,-0.7916250228881836,-1.7096199989318848,-7.726109981536865,-0.42673537135124207,-0.03159719705581665,0.3565481901168823,-2.9685938358306885,0.8196821212768555,2.1237869262695312,4.279722690582275,-1.520182728767395,0.0768364742398262,13.655531883239746,16,6,9,64,0.0032591184,-0.048078656,3.003414,0.051132686,-0.23542342,-0.02237055,1.4760253,-1.0606314,8.09719
1782388559.2814984,0.06866203248500824,0.4650628864765167,4.823965072631836,0.6593681573867798,2.4299535751342773,3.8591718673706055,-1.4599015712738037,-0.6005377173423767,8.629537582397461,-0.027696609497070312,-0.13176780939102173,0.5689804553985596,1.1491373777389526,0.23640695214271545,-0.5195039510726929,-1.7306617498397827,-7.313619136810303,-0.09483008086681366,0.07238101959228516,-0.40693002939224243,-0.8658398389816284,1.2388441562652588,-1.0270137786865234,-0.5689804553985596,-1.7239794731140137,-7.519864559173584,-0.1422451138496399,-0.030809998512268066,0.40305447578430176,-3.042808771133423,0.8235878944396973,2.096658229827881,4.0570783615112305,-1.5201985836029053,-0.018198112025856972,13.79777717590332,16,6,9,64,0.0032987033,-0.048634175,3.0033565,0.025566343,-0.2663161,-0.040480044,1.0019734,-0.24660277,8.402451
1782388559.2825277,0.06969146430492401,0.5658264756202698,4.725011825561523,0.6636070013046265,2.3408162593841553,3.710742235183716,-1.4608968496322632,-0.5297672748565674,8.676952362060547,-0.027938783168792725,-0.12789228558540344,0.5689804553985596,1.1498337984085083,0.4146810472011566,-0.5937187671661377,-1.7434889078140259,-6.603892803192139,0.2844902276992798,0.07177549600601196,-0.24415801465511322,-0.8658398389816284,1.2368762493133545,-1.216914415359497,-0.44528907537460327,-1.7381967306137085,-8.039521217346191,0.3319052755832672,-0.029962241649627686,0.5658264756202698,-3.117023468017578,0.8272817134857178,1.9726415872573853,4.0570783615112305,-1.520182728767395,0.05863836035132408,13.750361442565918,16,6,9,64,0.0032404577,-0.049119994,3.003294,-0.021305285,-0.2237055,-0.038349517,1.0019734,-0.24660277,8.402451
1782388559.2898276,0.07184116542339325,0.37980133295059204,4.725011825561523,0.6742949485778809,2.488086223602295,4.428152561187744,-1.4618604183197021,-0.4610188603401184,8.629537582397461,-0.028181016445159912,-0.12789228558540344,0.5689804553985596,1.1491373777389526,-0.8448641896247864,-2.226445436477661,-1.772476315498352,-7.070977210998535,-0.1422451138496399,0.07044327259063721,-0.20152723789215088,-0.9647929668426514,1.2304573059082031,-1.7827409505844116,-1.9295859336853027,-1.767279028892517,-7.560304641723633,0.9008857607841492,-0.028024494647979736,0.3914279043674469,-3.265453338623047,0.8361227512359619,2.1199114322662354,3.78495717048645,-1.520182728767395,0.02022012509405613,13.79777717590332,16,6,9,62,0.003158853,-0.050122906,3.0030806,0.010652643,-0.23755394,-0.059654802,0.90021986,0.5590461,8.1642275
1782388559.2909064,0.07281006872653961,0.43018317222595215,4.700273513793945,0.6797751188278198,2.6314806938171387,4.378675937652588,-1.4627923965454102,-0.39227041602134705,9.245932579040527,-0.02821129560470581,-0.015502095222473145,0.6431953310966492,1.1464426517486572,-1.4184417724609375,-1.979062557220459,-1.7856826782226562,-6.838446140289307,-0.04741504043340683,0.06968629360198975,-0.3332950472831726,-0.940054714679718,1.2253707647323608,-2.7244932651519775,-1.2616523504257202,-1.7826493978500366,-7.513798236846924,0.2844902276992798,-0.027025341987609863,0.48831602931022644,-3.2407150268554688,0.8361227512359619,2.1199114322662354,3.78495717048645,-1.520214319229126,0.006066037341952324,12.944306373596191,15,6,9,62,0.0032472746,-0.05061997,3.0029874,0.05219795,-0.21837918,-0.05006742,0.90021986,0.5590461,8.1642275
1782388559.2919502,0.07380922138690948,0.45731180906295776,4.700273513793945,0.6845589876174927,2.274932384490967,4.527105808258057,-1.4634875059127808,-0.335654079914093,9.435592651367188,-0.02802962064743042,0.07751047611236572,0.5937187671661377,1.1437783241271973,-1.3525577783584595,-1.9295859336853027,-1.7987151145935059,-6.7211689949035645,0.04741504043340683,0.06880825757980347,-0.34492161870002747,-0.9647929668426514,1.2253707647323608,-2.7244932651519775,-1.2616523504257202,-1.7967087030410767,-7.1296162605285645,0.4741504192352295,-0.02608668804168701,0.3875523805618286,-3.339668035507202,0.8401497006416321,2.1547911167144775,3.562312602996826,-1.5203722715377808,-0.05055030807852745,12.754646301269531,15,6,9,62,0.0033318715,-0.051090367,3.0029233,0.045806367,-0.2237055,-0.03941478,1.2797008,-1.2737153,8.512584
1782388559.293022,0.07471753656864166,0.3914279043674469,4.799226760864258,0.6890703439712524,2.2361772060394287,4.527105808258057,-1.4640246629714966,-0.22444337606430054,9.29334831237793,-0.027636051177978516,0.12789228558540344,0.5442422032356262,1.1411744356155396,-1.375810980796814,-1.979062557220459,-1.8117475509643555,-6.994141101837158,0.2844902276992798,0.06805133819580078,-0.3371705710887909,-0.8905781507492065,1.2194968461990356,-2.9027671813964844,-0.9647929668426514,-1.813200831413269,-7.382367134094238,0.8534707427024841,-0.025299489498138428,0.3875523805618286,-3.339668035507202,0.844237208366394,1.9261353015899658,3.5870509147644043,-1.520388126373291,0.044484272599220276,12.612401008605957,15,6,9,62,0.0033161894,-0.051557735,3.0028398,-0.0053263213,-0.21624866,-0.047936894,1.2797008,-1.2737153,8.512584
1782388559.2940586,0.07538364827632904,0.31779295206069946,4.749750137329102,0.6928247213363647,2.274932384490967,4.403414249420166,-1.464577555656433,-0.25679558515548706,9.625253677368164,-0.027393817901611328,0.1433943808078766,0.5689804553985596,1.1390247344970703,-1.3448067903518677,-1.9295859336853027,-1.8224737644195557,-6.444153785705566,0.42673537135124207,0.06744575500488281,-0.43018317222595215,-0.7916250228881836,1.2099897861480713,-2.449331045150757,-1.0884844064712524,-1.825775146484375,-7.206452369689941,0.8534707427024841,-0.02457284927368164,0.4185566008090973,-3.3644063472747803,0.8515037894248962,2.131537914276123,3.2407150268554688,-1.5204038619995117,0.03235219791531563,12.659815788269043,15,6,9,62,0.0032742287,-0.05196488,3.0027883,0.0,-0.18322547,-0.029827401,1.2797008,-1.2737153,8.512584
1782388559.2950876,0.0767461508512497,0.3565481901168823,4.626058578491211,0.6958827972412109,2.212924003601074,4.403414249420166,-1.465635895729065,-0.3033018708229065,9.577837944030762,-0.02678823471069336,0.15889647603034973,0.470027357339859,1.136572241783142,-1.4378193616867065,-1.6327266693115234,-1.833184003829956,-6.332942962646484,0.42673537135124207,0.06680995225906372,-0.43405866622924805,-0.7916250228881836,1.2055087089538574,-2.6353561878204346,-0.7421484589576721,-1.8364065885543823,-6.884952068328857,0.995715856552124,-0.023876428604125977,0.43793419003486633,-3.4386212825775146,0.8548343181610107,2.057903289794922,3.067546844482422,-1.5203722715377808,0.006066037341952324,12.659815788269043,14,6,9,62,0.0032091038,-0.052247874,3.0027692,-0.04154531,-0.11185275,-0.013848436,1.4736311,-1.0342951,8.342596
1782388559.2961192,0.0767461508512497,0.3565481901168823,4.626058578491211,0.6990317106246948,2.2361772060394287,4.230246067047119,-1.4663151502609253,-0.3558741807937622,9.625253677368164,-0.02627354860305786,0.23253144323825836,0.44528907537460327,1.1338775157928467,-1.8059940338134766,-1.2121758460998535,-1.8440208435058594,-5.92045259475708,0.6163955330848694,0.06614387035369873,-0.3953034579753876,-0.8411015868186951,1.200270652770996,-2.7593729496002197,-0.5937187671661377,-1.858980417251587,-6.330920696258545,1.090545892715454,-0.02311950922012329,0.5154446363449097,-3.4633593559265137,0.858588695526123,1.9726415872573853,3.117023468017578,-1.5203722715377808,-0.028308173641562462,12.659815788269043,14,6,9,62,0.0031210019,-0.052515287,3.0027843,-0.038349517,-0.119309604,0.006391586,1.4736311,-1.0342951,8.342596
1782388559.3053756,0.07865361869335175,0.49219149351119995,4.4776291847229,0.7065707445144653,2.2943100929260254,3.760218858718872,-1.4676263332366943,-0.36800625920295715,9.67266845703125,-0.02524411678314209,0.25966009497642517,0.470027357339859,1.127398133277893,-2.135413646697998,-0.7421484589576721,-1.8652361631393433,-5.459433555603027,0.9008857607841492,0.06478136777877808,-0.3332950472831726,-0.8658398389816284,1.1899763345718384,-2.9337716102600098,-0.12369140982627869,-1.88117516040802,-5.827439785003662,1.4224512577056885,-0.021484553813934326,0.49219149351119995,-3.562312602996826,0.8653103113174438,1.8990066051483154,2.9191172122955322,-1.5203090906143188,0.016176098957657814,12.754646301269531,13,6,9,62,0.0029781188,-0.053357158,3.0028124,-0.012783172,-0.21624866,-0.0042610574,0.62728083,-0.5374983,9.064447
1782388559.3065124,0.08068220317363739,0.5658264756202698,4.5023674964904785,0.7115665674209595,2.398949146270752,3.537574291229248,-1.4682265520095825,-0.37811633944511414,9.67266845703125,-0.02485048770904541,0.18214961886405945,0.44528907537460327,1.1231290102005005,-2.1160359382629395,-0.5195039510726929,-1.8754725456237793,-5.754647254943848,1.090545892715454,0.0643271803855896,-0.20152723789215088,-0.940054714679718,1.1848896741867065,-2.968651294708252,-0.049476563930511475,-1.891474723815918,-5.627260684967041,1.6595264673233032,-0.02033400535583496,0.6278348565101624,-3.6612658500671387,0.8689133524894714,1.8796290159225464,2.7212109565734863,-1.5202617645263672,0.04246226325631142,12.659815788269043,13,6,9,62,0.0029191324,-0.053768888,3.0028062,-0.015978964,-0.17150755,-0.01704423,0.62728083,-0.5374983,9.064447
1782388559.3101091,0.08162082731723785,0.5929551720619202,4.601320266723633,0.7155026197433472,2.6276051998138428,3.78495717048645,-1.4688427448272705,-0.3619402348995209,10.24164867401123,-0.024426579475402832,0.20540276169776917,0.42055079340934753,1.1141971349716187,-3.2011826038360596,-2.0780158042907715,-1.8837027549743652,-5.67376708984375,1.043130874633789,0.06360054016113281,-0.15502095222473145,-1.3111289739608765,1.1796213388442993,-3.2438135147094727,-2.5480430126190186,-1.8998312950134277,-5.875967979431152,1.6595264673233032,-0.018002629280090332,0.6355859041213989,-3.8591718673706055,0.8724861145019531,2.1121604442596436,2.869640827178955,-1.5202617645263672,0.016176098957657814,12.375325202941895,13,6,9,62,0.0028076917,-0.054155704,3.0027628,-0.04261057,-0.1821602,-0.027696872,1.0666169,0.272939,7.335834
1782388559.3130608,0.08258970081806183,0.4960670471191406,4.527105808258057,0.7236776351928711,2.39119815826416,3.8096954822540283,-1.4693797826766968,-0.3477861285209656,10.194233894348145,-0.023942172527313232,0.25966009497642517,0.3463359475135803,1.107717752456665,-3.9104034900665283,-1.8058946132659912,-1.9002580642700195,-5.457411766052246,1.090545892715454,0.06299495697021484,-0.2867887616157532,-1.2616523504257202,1.1735053062438965,-3.9917895793914795,-2.003800868988037,-1.9082984924316406,-5.605018615722656,1.8017715215682983,-0.01715487241744995,0.4650628864765167,-3.760218858718872,0.8754835724830627,2.042401075363159,2.820164203643799,-1.520277500152588,-0.014154086820781231,12.280495643615723,16,6,9,62,0.0028011163,-0.05456803,3.0027409,-0.0042610574,-0.19174758,-0.015978964,1.0666169,0.272939,7.335834
1782388559.3141468,0.0835282951593399,0.523195743560791,4.576581954956055,0.7275228500366211,2.3756959438323975,3.8591718673706055,-1.4698220491409302,-0.3599182367324829,10.24164867401123,-0.023518264293670654,0.26353561878204346,0.37107422947883606,1.1019346714019775,-3.7321295738220215,-1.6822031736373901,-1.9085357189178467,-4.826543807983398,1.2802060842514038,0.062480270862579346,-0.3836768567562103,-1.2121758460998535,1.1572463512420654,-4.78239631652832,-1.1626992225646973,-1.9170342683792114,-5.186461925506592,1.8491865396499634,-0.016519010066986084,0.3565481901168823,-3.760218858718872,0.8825079798698425,2.2012975215911865,2.7212109565734863,-1.5202617645263672,0.04044025018811226,12.280495643615723,16,6,9,62,0.0028253382,-0.054980982,3.002733,0.02450108,-0.20026968,-0.009587379,1.0666169,0.272939,7.335834
1782388559.315192,0.08434580266475677,0.48831602931022644,4.675535202026367,0.7307624816894531,2.274932384490967,3.78495717048645,-1.4707067012786865,-0.31543394923210144,10.289063453674316,-0.022670507431030273,0.23253144323825836,0.42055079340934753,1.096938967704773,-3.6352412700653076,-1.558511734008789,-1.9161971807479858,-5.07525110244751,1.4224512577056885,0.06184440851211548,-0.3836768567562103,-1.2616523504257202,1.1503732204437256,-4.154561519622803,-1.4595586061477661,-1.931646466255188,-4.757795333862305,1.8017715215682983,-0.016004323959350586,0.34492161870002747,-3.78495717048645,0.885535717010498,1.988143801689148,2.622257947921753,-1.520277500152588,0.014154086820781231,12.233080863952637,16,6,9,62,0.0028948116,-0.055511557,3.0027373,0.06817692,-0.23755394,0.0,1.411382,-0.93134445,8.66701
1782388559.316227,0.08573855459690094,0.4689383804798126,4.601320266723633,0.7342444658279419,2.212924003601074,3.760218858718872,-1.4711016416549683,-0.2851037383079529,10.383893966674805,-0.022397994995117188,0.10463915020227432,0.42055079340934753,1.0912165641784668,-3.5461044311523438,-1.4595586061477661,-1.9239535331726074,-4.699156761169434,1.2327910661697388,0.06120860576629639,-0.3604237139225006,-1.1626992225646973,1.144045352935791,-4.127432823181152,-1.4595586061477661,-1.9391974210739136,-4.632430553436279,1.7069414854049683,-0.01533818244934082,0.40693002939224243,-3.8591718673706055,0.8886240720748901,2.185795545578003,2.449090003967285,-1.520214319229126,0.04044025018811226,12.233080863952637,16,7,9,57,0.0029155011,-0.05588295,3.0027745,0.028762136,-0.14274542,0.01704423,1.411382,-0.93134445,8.66701
1782388559.3172786,0.0866166204214096,0.5193201899528503,4.5023674964904785,0.7376657724380493,2.181919813156128,3.760218858718872,-1.471559762954712,-0.28105974197387695,10.383893966674805,-0.02206498384475708,0.15114542841911316,0.37107422947883606,1.079862356185913,-3.8949015140533447,-0.7668867111206055,-1.9310462474822998,-4.745663166046143,1.2802060842514038,0.05957365036010742,-0.5580754280090332,-0.9895312786102295,1.1367180347442627,-4.445225715637207,-0.7421484589576721,-1.9455478191375732,-4.250270366668701,1.8491865396499634,-0.01467210054397583,0.4263076186180115,-3.9086484909057617,0.8921362161636353,2.1509158611297607,2.3006601333618164,-1.5201985836029053,0.024264149367809296,12.185665130615234,17,7,9,57,0.0028516909,-0.05618497,3.002816,-0.030892665,-0.14168015,0.008522115,0.92296475,-1.103727,7.8865004
1782388559.318314,0.08749465644359589,0.5076935887336731,4.4776291847229,0.7450838088989258,2.274932384490967,3.4386212825775146,-1.4719704389572144,-0.2749936878681183,10.289063453674316,-0.021641075611114502,0.21315380930900574,0.37107422947883606,1.073110580444336,-4.21269416809082,-0.44528907537460327,-1.93842351436615,-4.314974308013916,1.2327910661697388,0.058453381061553955,-0.6627146005630493,-0.940054714679718,1.1291184425354004,-4.9490437507629395,-0.44528907537460327,-1.952703833580017,-4.029870986938477,1.6595264673233032,-0.012915968894958496,0.5503243803977966,-4.0570783615112305,0.8957695364952087,2.2400527000427246,2.1522305011749268,-1.5201669931411743,0.010110062547028065,12.233080863952637,17,7,9,57,0.002757317,-0.056586392,3.0028574,0.003195793,-0.19707389,0.0074568503,0.92296475,-1.103727,7.8865004
1782388559.3193467,0.08831216394901276,0.45731180906295776,4.403414249420166,0.7488987445831299,2.228426218032837,3.1665000915527344,-1.4723180532455444,-0.21837733685970306,10.289063453674316,-0.02112632989883423,0.2480335235595703,0.2721211016178131,1.0659044981002808,-4.177814483642578,-0.22264453768730164,-1.9516139030456543,-4.100641250610352,1.1379609107971191,0.057211995124816895,-0.6704655885696411,-0.8411015868186951,1.1211555004119873,-4.797898292541504,-0.17316797375679016,-1.9594491720199585,-3.9934744834899902,1.896601676940918,-0.011856257915496826,0.6239593029022217,-4.0570783615112305,0.8989183902740479,2.0230236053466797,2.201707124710083,-1.5200879573822021,0.04044025018811226,12.185665130615234,17,7,9,56,0.002675994,-0.057041585,3.0028977,-0.025566343,-0.20346548,0.010652643,0.92296475,-1.103727,7.8865004
1782388559.3203812,0.08925075829029083,0.5038180947303772,4.428152561187744,0.753016471862793,2.402824640274048,2.9438555240631104,-1.4727445840835571,-0.23859746754169464,10.383893966674805,-0.020732760429382324,0.23640695214271545,0.3215976655483246,1.059152603149414,-4.057673454284668,-0.07421484589576721,-1.9576799869537354,-3.6477103233337402,1.2327910661697388,0.056152284145355225,-0.685967743396759,-0.8658398389816284,1.104381799697876,-4.794023036956787,0.07421484589576721,-1.9657678604125977,-3.692194700241089,1.7069414854049683,-0.010796546936035156,0.6355859041213989,-4.156031608581543,0.9060639142990112,2.1082849502563477,2.0285391807556152,-1.5200247764587402,0.04852829873561859,12.185665130615234,17,7,9,56,0.0025893492,-0.057531163,3.002915,-0.043675836,-0.23861921,0.0,0.7206547,0.6596026,10.166978
1782388559.3299263,0.09155185520648956,0.5115691423416138,5.096086025238037,0.7576186656951904,2.4183268547058105,2.869640827178955,-1.4736608266830444,-0.23455344140529633,10.383893966674805,-0.020308852195739746,-0.023253142833709717,0.42055079340934753,1.041409969329834,-4.98392391204834,-2.1522305011749268,-1.9645516872406006,-3.5951383113861084,1.2327910661697388,0.05330616235733032,-0.6820921897888184,-1.4595586061477661,1.0957828760147095,-4.530487060546875,0.22264453768730164,-1.9769680500030518,-3.095701217651367,1.5172812938690186,-0.008253276348114014,0.5348222851753235,-4.329199314117432,0.9098788499832153,2.054027557373047,1.8306329250335693,-1.5198509693145752,0.04246226325631142,12.185665130615234,20,7,9,56,0.0025679432,-0.058601897,3.0028543,0.021305285,-0.27057713,-0.025566343,0.6727707,1.0606314,7.630321
1782388559.3310053,0.09255100786685944,0.5890796184539795,5.046609401702881,0.7676405906677246,2.522966146469116,2.7459492683410645,-1.474245309829712,-0.19613520801067352,10.62096881866455,-0.020551085472106934,-0.18990066647529602,0.5195039510726929,1.0321147441864014,-5.580754280090332,-1.2121758460998535,-1.9771103858947754,-3.095701217651367,1.3276211023330688,0.05188310146331787,-0.7789802551269531,-1.4100821018218994,1.084489345550537,-5.181575298309326,-2.5233047008514404,-1.9839186668395996,-2.8449714183807373,2.3233370780944824,-0.007254064083099365,0.5774530172348022,-4.4776291847229,0.9146929979324341,2.0346500873565674,1.558511734008789,-1.5196772813796997,0.09705659747123718,12.422740936279297,20,7,9,54,0.0026606428,-0.059168536,3.0027902,0.04900216,-0.2652508,-0.03941478,0.6727707,1.0606314,7.630321
1782388559.332049,0.0937015563249588,0.5774530172348022,5.096086025238037,0.7722125053405762,2.313687801361084,2.646996259689331,-1.4745137691497803,-0.14558489620685577,10.763214111328125,-0.020944714546203613,-0.2790377140045166,0.5689804553985596,1.0212148427963257,-5.848165512084961,-1.0637460947036743,-1.9771103858947754,-3.095701217651367,1.3276211023330688,0.050278425216674805,-0.8448641896247864,-1.2616523504257202,1.0739527940750122,-6.165958404541016,-1.4842969179153442,-1.9883575439453125,-2.367776393890381,2.038846731185913,-0.006254911422729492,0.4960670471191406,-4.428152561187744,0.9184473752975464,2.0617785453796387,1.1626992225646973,-1.5195666551589966,0.09301257133483887,12.375325202941895,23,7,9,54,0.0027308927,-0.059660885,3.0027423,0.03515372,-0.23968448,-0.03408846,0.6727707,1.0606314,7.630321
1782388559.3331082,0.09491266310214996,0.6123327612876892,4.997132778167725,0.7769962549209595,2.3873226642608643,2.5480430126190186,-1.4748613834381104,-0.19613520801067352,10.763214111328125,-0.02127772569656372,-0.18214961886405945,0.5195039510726929,1.0110113620758057,-5.127317905426025,-1.3111289739608765,-1.9829866886138916,-2.772179126739502,1.4698662757873535,0.04858285188674927,-0.76347815990448,-1.2863906621932983,1.061387538909912,-6.196962356567383,-1.1132227182388306,-1.9927175045013428,-2.1130030155181885,1.991431713104248,-0.005286037921905518,0.43405866622924805,-4.403414249420166,0.9225045442581177,2.2090485095977783,0.9895312786102295,-1.5194087028503418,0.08088050037622452,12.375325202941895,23,7,9,54,0.0028238955,-0.060237862,3.0026953,0.04900216,-0.3078614,-0.027696872,0.8822633,-0.38307226,7.751228
1782388559.3341565,0.09615401923656464,0.5038180947303772,5.120824337005615,0.7769962549209595,2.3873226642608643,2.5480430126190186,-1.4751930236816406,-0.18400312960147858,10.858044624328613,-0.021550238132476807,-0.13176780939102173,0.5195039510726929,1.000504970550537,-4.894786834716797,-1.2616523504257202,-1.9879153966903687,-2.525493621826172,1.4224512577056885,0.04682677984237671,-0.8448641896247864,-1.2121758460998535,1.0485196113586426,-6.708531856536865,-1.0390079021453857,-1.996382474899292,-1.8157671689987183,1.896601676940918,-0.005286037921905518,0.43405866622924805,-4.403414249420166,0.9268645644187927,2.096658229827881,0.9895312786102295,-1.5192664861679077,0.10514464974403381,12.470155715942383,23,7,9,52,0.0030638806,-0.06092997,3.0026746,0.09693905,-0.3259709,-0.013848436,0.8822633,-0.38307226,7.751228
1782388559.3351967,0.09615401923656464,0.5038180947303772,5.120824337005615,0.7817498445510864,2.3718206882476807,2.449090003967285,-1.4756985902786255,-0.2022012323141098,10.858044624328613,-0.02188330888748169,-0.18990066647529602,0.470027357339859,1.000504970550537,-4.894786834716797,-1.2616523504257202,-1.9930652379989624,-2.2727420330047607,1.2802060842514038,0.04682677984237671,-0.8448641896247864,-1.2121758460998535,1.0356214046478271,-5.968306541442871,-1.0884844064712524,-2.0000157356262207,-1.5225753784179688,1.8491865396499634,-0.004347443580627441,0.4766894578933716,-4.403414249420166,0.9319511651992798,2.057903289794922,0.7668867111206055,-1.519219160079956,0.0,12.422740936279297,24,7,9,52,0.0031610501,-0.061527807,3.0026956,0.04154531,-0.2865561,0.010652643,0.7062895,-1.0869676,9.139865
1782388559.3362262,0.0972742885351181,0.4728139042854309,5.021871089935303,0.7876237630844116,2.2400527000427246,2.3006601333618164,-1.4756985902786255,-0.2022012323141098,10.858044624328613,-0.02188330888748169,-0.18990066647529602,0.470027357339859,0.9874553680419922,-5.096313953399658,-0.6926718950271606,-1.9987521171569824,-1.9128239154815674,0.995715856552124,0.04467707872390747,-1.0425158739089966,-1.0390079021453857,1.0196046829223633,-5.828787803649902,-0.5937187671661377,-2.0000157356262207,-1.5225753784179688,1.8491865396499634,-0.0031666159629821777,0.5503243803977966,-4.576581954956055,0.9382185935974121,2.085031747817993,0.6679335832595825,-1.519219160079956,0.0,12.422740936279297,24,7,9,52,0.0031306685,-0.06208212,3.0026739,-0.012783172,-0.27909926,-0.018109493,0.7062895,-1.0869676,9.139865
1782388559.3454323,0.09878818690776825,0.5503243803977966,4.89818000793457,0.7936186790466309,2.2981855869293213,2.003800868988037,-1.4762672185897827,-0.19411319494247437,11.000288963317871,-0.022216320037841797,-0.12014123797416687,0.44528907537460327,0.9734066724777222,-5.421857833862305,-0.17316797375679016,-2.002385377883911,-1.7025344371795654,0.8534707427024841,0.04164934158325195,-1.0928977727890015,-0.7668867111206055,1.002982258796692,-5.770654678344727,-0.07421484589576721,-2.0035386085510254,-1.1121068000793457,1.6121113300323486,-0.0015013813972473145,0.6123327612876892,-4.675535202026367,0.9382185935974121,2.085031747817993,0.6679335832595825,-1.5191717147827148,0.010110062547028065,12.422740936279297,24,7,10,52,0.003111448,-0.0627602,3.0026464,0.009587379,-0.3312972,-0.01704423,0.7062895,-1.0869676,9.139865
1782388559.3465142,0.10005982220172882,0.5464488863945007,4.848703384399414,0.7986447811126709,2.449331045150757,1.8058946132659912,-1.4766780138015747,-0.18602514266967773,11.047704696655273,-0.0221860408782959,0.0,0.37107422947883606,0.9626883864402771,-5.185451030731201,0.0,-2.00537109375,-1.3830565214157104,0.8060556650161743,0.039136290550231934,-1.1316529512405396,-0.6679335832595825,1.002982258796692,-5.770654678344727,-0.07421484589576721,-2.005655288696289,-0.9301257729530334,1.3276211023330688,1.2516975402832031e-05,0.6045817136764526,-4.700273513793945,0.943002462387085,2.1974220275878906,0.37107422947883606,-1.519108533859253,0.02022012509405613,12.375325202941895,24,7,10,52,0.0030354825,-0.06337943,3.0026133,-0.031957928,-0.3046656,-0.020240022,0.830788,0.44891283,9.991004
1782388559.3497958,0.10233063995838165,0.5929551720619202,5.4176836013793945,0.8081215620040894,2.5539700984954834,2.003800868988037,-1.4774678945541382,-0.23859746754169464,11.000288963317871,-0.022579669952392578,-0.21315380930900574,0.5195039510726929,0.9418877363204956,-5.635011672973633,-2.646996259689331,-2.0076141357421875,-1.128282904624939,0.7112256288528442,0.03523051738739014,-0.8952460289001465,-1.5832500457763672,0.9791841506958008,-6.10782527923584,0.3463359475135803,-2.007882595062256,-0.3902483880519867,2.4655821323394775,0.002707242965698242,0.6704655885696411,-4.922918319702148,0.951873779296875,2.302061080932617,0.12369140982627869,-1.5188874006271362,0.12738679349422455,13.181381225585938,27,7,9,52,0.002898146,-0.06480636,3.002488,-0.03408846,-0.35260248,-0.0447411,0.33039984,1.2545617,8.0924015
1782388559.3508563,0.1039353460073471,0.685967743396759,5.244515895843506,0.8132082223892212,2.71286678314209,1.8058946132659912,-1.4777837991714478,-0.14760690927505493,11.569270133972168,-0.023276031017303467,-0.2480335235595703,0.5689804553985596,0.9292014241218567,-6.770540237426758,-1.5090352296829224,-2.011200189590454,-0.78858482837677,1.090545892715454,0.03283858299255371,-0.9572544097900391,-1.4100821018218994,0.9665281176567078,-6.588390350341797,-2.844902515411377,-2.0080246925354004,0.02022012509405613,2.133676767349243,0.0037972331047058105,0.6355859041213989,-4.922918319702148,0.9563851356506348,2.2555549144744873,0.3215976655483246,-1.5186188220977783,0.13345281779766083,13.08655071258545,27,7,9,52,0.0028845721,-0.065483324,3.0024326,0.003195793,-0.35473302,-0.030892665,0.33039984,1.2545617,8.0924015
1782388559.3519013,0.10535840690135956,0.76347815990448,5.269254207611084,0.8179315328598022,2.581098794937134,1.8058946132659912,-1.4779417514801025,-0.05863836035132408,11.569270133972168,-0.02379077672958374,-0.3410460948944092,0.5195039510726929,0.9168481826782227,-7.134839057922363,-0.6926718950271606,-2.012321710586548,-0.5398773550987244,1.1379609107971191,0.030900776386260986,-0.9843829870223999,-1.3853437900543213,0.9379764199256897,-7.727794647216797,-0.9647929668426514,-2.007472038269043,0.3477861285209656,2.038846731185913,0.004887223243713379,0.6162083148956299,-5.021871089935303,0.9606845378875732,2.3330652713775635,0.14842969179153442,-1.5182870626449585,0.16984905302524567,13.228796005249023,27,7,9,52,0.0028076596,-0.06615396,3.0023637,-0.045806367,-0.3312972,-0.03941478,0.33039984,1.2545617,8.0924015
1782388559.3529558,0.10678143799304962,0.7441005706787109,5.269254207611084,0.8224731683731079,2.488086223602295,1.8306329250335693,-1.4779891967773438,-0.024264149367809296,11.569270133972168,-0.024244964122772217,-0.2790377140045166,0.5442422032356262,0.9028297066688538,-7.1387152671813965,-0.8411015868186951,-2.013237953186035,-0.4124905467033386,1.043130874633789,0.029235541820526123,-0.9417523145675659,-1.3606054782867432,0.9235643148422241,-7.5999016761779785,-1.0637460947036743,-2.006650447845459,0.5499873757362366,1.991431713104248,0.00591665506362915,0.5735775232315063,-5.046609401702881,0.9648022651672363,2.267181396484375,0.14842969179153442,-1.517971158027649,0.1536729484796524,13.371041297912598,28,7,9,52,0.0027040278,-0.066828,3.0022974,-0.05432848,-0.35153723,-0.036218986,0.7134721,-0.016759412,8.031349
1782388559.3539922,0.10814394056797028,0.685967743396759,5.34346866607666,0.8270753622055054,2.2555549144744873,1.781156301498413,-1.4780207872390747,-0.06470439583063126,11.569270133972168,-0.024699091911315918,-0.2247803807258606,0.5689804553985596,0.890082836151123,-6.317103862762451,-1.2616523504257202,-2.013885498046875,-0.30127984285354614,0.9008857607841492,0.027418911457061768,-0.9378767609596252,-1.3606054782867432,0.9235643148422241,-7.5999016761779785,-1.0637460947036743,-2.005418300628662,0.6429999470710754,1.991431713104248,0.0069158077239990234,0.5270712375640869,-5.046609401702881,0.9691319465637207,2.2400527000427246,0.14842969179153442,-1.5175604820251465,0.20422324538230896,13.276211738586426,28,7,10,52,0.002754649,-0.06760792,3.0022678,0.006391586,-0.39414778,-0.008522115,0.7134721,-0.016759412,8.031349
1782388559.3550227,0.10950641334056854,0.600706160068512,5.269254207611084,0.8317078351974487,2.2090485095977783,1.8306329250335693,-1.4779891967773438,0.0040440247394144535,11.569270133972168,-0.0250624418258667,-0.1976517289876938,0.44528907537460327,0.8777296543121338,-6.243468761444092,-1.0390079021453857,-2.013885498046875,-0.30127984285354614,0.9008857607841492,0.024966418743133545,-1.0425158739089966,-1.1874375343322754,0.909303605556488,-7.111586093902588,-1.0390079021453857,-2.0034594535827637,0.9483237862586975,1.6121113300323486,0.00803607702255249,0.5386977791786194,-5.19503927230835,0.973491907119751,2.2012975215911865,0.07421484589576721,-1.5171971321105957,0.17995911836624146,13.276211738586426,28,7,10,49,0.0027230636,-0.068326764,3.002247,-0.075633764,-0.31425297,-0.015978964,1.2090719,-1.2425907,8.9842415
1782388559.356051,0.110929474234581,0.5658264756202698,5.19503927230835,0.8317078351974487,2.2090485095977783,1.8306329250335693,-1.4780365228652954,-0.04852829873561859,11.569270133972168,-0.02545607089996338,-0.21702933311462402,0.5195039510726929,0.8642864227294922,-6.57676362991333,-0.5195039510726929,-2.0142173767089844,-0.07077043503522873,0.8534707427024841,0.02257448434829712,-1.1045242547988892,-1.0390079021453857,0.8949823379516602,-7.285984992980957,-0.44528907537460327,-2.001168966293335,1.1040188074111938,1.3276211023330688,0.009459078311920166,0.6588390469551086,-5.31873083114624,0.9782454967498779,2.2555549144744873,-0.024738281965255737,-1.5168969631195068,0.14356288313865662,13.418456077575684,28,7,10,49,0.0023748877,-0.06888952,3.0022047,-0.17470334,-0.27483818,-0.02450108,1.2090719,-1.2425907,8.9842415
1782388559.365015,0.11268557608127594,0.7014698386192322,5.096086025238037,0.8360980749130249,1.9920191764831543,1.8058946132659912,-1.4780681133270264,-0.034374210983514786,11.47443962097168,-0.025819361209869385,-0.2209048718214035,0.5442422032356262,0.8521451354026794,-6.693029403686523,-0.049476563930511475,-2.0142016410827637,0.056616347283124924,0.7112256288528442,0.02027338743209839,-1.0967732667922974,-1.0390079021453857,0.8792380094528198,-7.685163497924805,-0.12369140982627869,-1.998625636100769,1.2314056158065796,1.043130874633789,0.010851860046386719,0.7130963802337646,-5.31873083114624,0.9824540615081787,2.14316463470459,-0.07421484589576721,-1.5166758298873901,0.13547484576702118,13.371041297912598,28,7,10,49,0.0020623242,-0.069636665,3.0021052,-0.15552859,-0.38349515,-0.053263217,1.2090719,-1.2425907,8.9842415
1782388559.3661757,0.11441139876842499,0.7596026659011841,4.997132778167725,0.8401855230331421,2.0734052658081055,1.5832500457763672,-1.4780681133270264,-0.006066037341952324,11.616684913635254,-0.026182711124420166,-0.21702933311462402,0.5442422032356262,0.8390954732894897,-6.231842041015625,0.024738281965255737,-2.013901472091675,0.14356288313865662,0.4741504192352295,0.02027338743209839,-1.0967732667922974,-1.0390079021453857,0.8652498126029968,-7.320864200592041,0.07421484589576721,-1.9958927631378174,1.486179232597351,0.995715856552124,0.010851860046386719,0.7130963802337646,-5.31873083114624,0.9863296151161194,1.9106332063674927,-0.07421484589576721,-1.516533613204956,0.12334275245666504,13.371041297912598,28,7,10,50,0.0018172261,-0.07042713,3.0019975,-0.1342233,-0.37816882,-0.055393744,0.80086046,1.1611878,10.585963
1782388559.3696601,0.11668218672275543,0.523195743560791,5.4176836013793945,0.8490568399429321,2.4958372116088867,1.0390079021453857,-1.4780049324035645,0.05863836035132408,12.233080863952637,-0.027060747146606445,-0.26741114258766174,0.6679335832595825,0.8165084719657898,-6.867428302764893,-3.117023468017578,-2.0127482414245605,0.37407228350639343,1.991431713104248,0.015005111694335938,-0.7130963802337646,-1.3606054782867432,0.8368494510650635,-7.9099440574646,-2.5480430126190186,-1.9896528720855713,1.7166885137557983,3.2716376781463623,0.014878809452056885,0.5890796184539795,-5.937187671661377,0.9937475919723511,1.809869647026062,0.22264453768730164,-1.5162967443466187,0.09705659747123718,14.603832244873047,29,7,10,50,0.0013600796,-0.07191178,3.0017688,-0.11824434,-0.37816882,-0.06604639,0.29688102,0.8690952,7.583634
1782388559.3707123,0.11804468929767609,0.6472124457359314,5.219777584075928,0.8582309484481812,2.8136303424835205,1.1132227182388306,-1.4778943061828613,0.05863836035132408,12.280495643615723,-0.027696609497070312,-0.3642992377281189,0.6926718950271606,0.8024899959564209,-7.93707275390625,-1.9295859336853027,-2.0118162631988525,0.5742515325546265,1.896601676940918,0.013400375843048096,-0.8758683800697327,-1.2616523504257202,0.8226493000984192,-8.623041152954102,-1.7316796779632568,-1.986051321029663,2.2019715309143066,2.797487497329712,0.015756845474243164,0.4960670471191406,-5.887711048126221,0.9966542720794678,1.8680025339126587,0.17316797375679016,-1.5159965753555298,0.16580501198768616,14.556417465209961,29,7,10,51,0.0012267914,-0.07270898,3.0016358,-0.07030744,-0.40480044,-0.06604639,0.29688102,0.8690952,7.583634
1782388559.371753,0.11928607523441315,0.8099844455718994,5.096086025238037,0.8625000715255737,2.8097546100616455,1.1132227182388306,-1.4777837991714478,0.06672640889883041,12.470155715942383,-0.028181016445159912,-0.3294195234775543,0.6679335832595825,0.7892587184906006,-8.402135848999023,-0.9647929668426514,-2.0093834400177,0.8937294483184814,1.7069414854049683,0.011825978755950928,-0.9029970169067383,-1.2121758460998535,0.7922809720039368,-9.14236068725586,-0.7668867111206055,-1.9819755554199219,2.4870753288269043,2.4655821323394775,0.016422927379608154,0.4224320948123932,-5.937187671661377,1.0031639337539673,2.057903289794922,0.049476563930511475,-1.5155225992202759,0.25275155901908875,14.414172172546387,29,7,10,51,0.0010517692,-0.07337779,3.0015204,-0.120374866,-0.30999193,-0.055393744,0.29688102,0.8690952,7.583634
1782388559.3728106,0.12067882716655731,0.8874949812889099,4.947656631469727,0.8660727739334106,2.608227491378784,1.0637460947036743,-1.4777995347976685,-0.04246226325631142,12.564985275268555,-0.028665482997894287,-0.3953034579753876,0.7421484589576721,0.7753612995147705,-8.933082580566406,-0.5442422032356262,-2.00770902633667,1.095930814743042,1.4698662757873535,0.010493755340576172,-0.8681173324584961,-1.1626992225646973,0.7791707515716553,-7.774300575256348,-1.2863906621932983,-1.9737138748168945,2.749937057495117,1.896601676940918,0.017028510570526123,0.4185566008090973,-5.986664295196533,1.0066155195236206,2.1586668491363525,-0.14842969179153442,-1.5151276588439941,0.32352200150489807,14.414172172546387,30,7,10,51,0.00080282934,-0.074060366,3.001404,-0.12463593,-0.36538565,-0.05645901,1.2533646,-0.36750996,9.108741
1782388559.3738496,0.12346436083316803,0.8254866003990173,5.021871089935303,0.8695849776268005,2.3679449558258057,1.3111289739608765,-1.4778469800949097,-0.0384182371199131,12.422740936279297,-0.029816031455993652,-0.37592580914497375,0.7668867111206055,0.7637953162193298,-9.39039421081543,-0.22264453768730164,-2.0058765411376953,1.1565910577774048,1.4698662757873535,0.009312927722930908,-0.7518516182899475,-1.2121758460998535,0.7675139307975769,-8.479645729064941,-0.7916250228881836,-1.9690220355987549,2.9925782680511475,1.8017715215682983,0.01775515079498291,0.5348222851753235,-6.060879230499268,1.009885549545288,2.1509158611297607,-0.3215976655483246,-1.5141009092330933,0.3417201042175293,14.556417465209961,30,7,10,50,0.0005821442,-0.074743755,3.0012817,-0.121440135,-0.33555827,-0.059654802,1.2533646,-0.36750996,9.108741
1782388559.3748715,0.12346436083316803,0.8254866003990173,5.021871089935303,0.8733999729156494,2.39119815826416,1.1626992225646973,-1.4778943061828613,-0.036396224051713943,12.422740936279297,-0.030270159244537354,-0.21702933311462402,0.6679335832595825,0.7473243474960327,-7.754922866821289,-1.0637460947036743,-2.003554344177246,1.2637578248977661,1.2327910661697388,0.008101820945739746,-0.7596026659011841,-1.1874375343322754,0.7519815564155579,-7.6580352783203125,-0.470027357339859,-1.9630508422851562,3.210955858230591,1.5172812938690186,0.01863318681716919,0.5619509220123291,-6.135093688964844,1.0142757892608643,2.1896708011627197,-0.470027357339859,-1.5134848356246948,0.3599182367324829,14.461586952209473,30,7,10,50,0.0004116951,-0.075449444,3.001182,-0.08202535,-0.36645094,-0.055393744,1.661576,-0.8559271,10.309433
1782388559.3759007,0.12631045281887054,0.7712292671203613,4.848703384399414,0.8781232833862305,2.302061080932617,1.1626992225646973,-1.4778469800949097,0.044484272599220276,12.280495643615723,-0.03054267168045044,-0.15502095222473145,0.6679335832595825,0.7229509353637695,-7.669661045074463,-0.3463359475135803,-2.001627206802368,1.350704312324524,1.2802060842514038,0.006557643413543701,-0.8797438740730286,-1.0637460947036743,0.7383869290351868,-8.274243354797363,-0.14842969179153442,-1.9574429988861084,3.457641363143921,1.2327910661697388,0.01990485191345215,0.7169718742370605,-6.2835235595703125,1.0179998874664307,2.14316463470459,-0.6431953310966492,-1.5129319429397583,0.33969810605049133,14.271926879882812,29,7,10,50,0.00016534871,-0.07617505,3.0010366,-0.15020227,-0.32916668,-0.075633764,1.661576,-0.8559271,10.309433
